timestamp,accel_x,accel_y,accel_z,gyro_x,gyro_y,gyro_z,mag_x,mag_y,mag_z,orientation_qx,orientation_qy,orientation_qz,orientation_qw
67887939,0.1418364650221541,0.2096352686047554,-0.1016840124517679,0.1542515307664871,-0.1324500143527984,-0.2953291833400726,-19.10028839111328,-41.481178283691406,-33.77130126953125,-0.1366981781636695,-0.3305489869965181,-0.881551205091283,-0.308088467022963
77962158,-0.11067757584434,0.1646820281565189,-0.0143172791659832,0.1537838876247406,0.0144094731658697,-0.3647636473178863,-19.033248901367188,-41.78802490234375,-33.80145263671875,-0.1366423984757729,-0.3313805321462029,-0.8807325677190155,-0.3095577484384278
88035888,-0.2350061854982748,0.0766547851353883,0.1007365024685859,0.1274174302816391,0.1467498838901519,-0.417154997587204,-18.96575164794922,-41.91927337646485,-33.7718505859375,-0.1358344431797697,-0.3324145999063017,-0.8799379236593249,-0.3110608475065466
98110107,-0.3599238105539232,-0.0312374343067407,0.1078098018556833,0.0885773599147796,0.2053769826889038,-0.4246896207332611,-18.442481994628903,-42.570457458496094,-33.59063720703125,-0.1344874527175594,-0.333473948275285,-0.8792128971321811,-0.3125587939693512
108183837,-0.2895742447762749,-0.0416050990641117,0.0278594823062419,0.0371778383851051,0.1861535310745239,-0.3874934017658233,-18.683494567871094,-42.70187377929688,-33.852294921875,-0.1330171623654462,-0.3343518353500593,-0.8785933974080022,-0.3139887073252035
118258056,-0.1567796027352102,0.0281055660218,-0.0041413375884294,-0.0083078853785991,0.0935932397842407,-0.353641152381897,-18.240020751953125,-42.71863555908203,-33.61859130859375,-0.1317670133534511,-0.3348790091628004,-0.8780825385131008,-0.3153801152556274
128332275,-0.1560229574153199,0.0081546648830175,-0.1513467457652091,-0.018137639388442,-0.0418043583631515,-0.3147237300872803,-17.968734741210938,-42.76358795166016,-33.932373046875,-0.1310658572157343,-0.3350828996948789,-0.8775830169226992,-0.3168426794214706
138406005,0.0602466163710691,0.0437672455340623,-0.2274889052033424,-0.0252805035561323,-0.1604969203472137,-0.2693996429443359,-17.899215698242188,-42.98566436767578,-33.84564208984375,-0.1309963449611056,-0.3350171600450358,-0.8770837585174204,-0.3183200507190416
148480224,0.2564426307533867,0.2160275999903678,-0.0953705915212631,-0.0351239591836929,-0.2341434061527252,-0.2158147692680359,-18.006874084472656,-42.99324035644531,-33.84490966796875,-0.1314219046699315,-0.3347260575120973,-0.8766106736595487,-0.3197509126688523
158553955,0.2602024582109414,0.3212479698747396,-0.0012859481573104,-0.0414441749453544,-0.2083765268325805,-0.1983843892812729,-18.02611541748047,-43.04078674316406,-33.913330078125,-0.1320176945201861,-0.3343232480341356,-0.8761985207786084,-0.321053565170515
168628173,-0.0368924095948226,0.271535552200675,0.0295282923012971,-0.0310502108186483,-0.1434751898050308,-0.2284975051879882,-17.82562255859375,-42.75273895263672,-34.15997314453125,-0.1323822627614986,-0.334020042016322,-0.8757971381714047,-0.3223119004069852
178701904,-0.2098048895506188,0.1794213321268558,-0.1504500891864299,0.0042292173020541,-0.1069113165140152,-0.2713365852832794,-17.77440643310547,-42.96205139160156,-33.985595703125,-0.1324770546815858,-0.3339226354986873,-0.8753351261350477,-0.3236260682116141
188775146,-0.2445798138011246,0.0358440513193607,-0.3383580946296453,0.0907683968544006,-0.1736980825662613,-0.3255961537361145,-17.62895965576172,-43.03857421875,-34.079345703125,-0.1326293951720161,-0.3340991999124851,-0.8746852167354354,-0.325135137480392
198849121,-0.142903527998086,-0.0256745394825935,-0.6048287646561861,0.2199418246746063,-0.3498590290546417,-0.3745482563972473,-17.736572265625,-43.371124267578125,-33.6195068359375,-0.1334267841237404,-0.334600828691762,-0.8736680793118566,-0.3270223854150837
208923095,0.0729524782850407,0.0345949280411005,-0.7148316926419734,0.3262462615966797,-0.5631965398788452,-0.4337738454341888,-17.701309204101562,-43.49205780029297,-33.8385009765625,-0.1352018657191767,-0.3353368311793948,-0.8722259584063354,-0.3293804035148224
218997070,0.1358456636421382,0.0714309130072593,-0.4541185632288456,0.3712686002254486,-0.7731156945228577,-0.5225250124931335,-17.589614868164062,-43.65827178955078,-33.3775634765625,-0.1379151589920133,-0.3361046629661814,-0.8703734387870233,-0.3323598388868682
229071044,0.0091127327928319,0.1792372077316045,-0.041136312508583,0.3482069075107574,-0.9319763779640198,-0.6264176368713379,-17.608078002929688,-43.46626281738281,-33.06402587890625,-0.1412884925817264,-0.336667844508962,-0.8681872296676674,-0.3360705375400333
239144775,-0.2492192188384942,0.3636959495037793,0.4961147074371576,0.2762972712516784,-1.0623692274093628,-0.6682324409484863,-17.725067138671875,-43.2562255859375,-32.8646240234375,-0.1450796598805148,-0.3368191234318269,-0.8658219973265242,-0.3403778944955725
249219238,-0.3060119136297143,0.4863754037111997,0.8024135299831628,0.1693079769611358,-1.1507585048675537,-0.6206279993057251,-17.787132263183594,-43.93619537353516,-33.21221923828125,-0.1492053522543668,-0.3363649310335969,-0.8634946268194784,-0.3449253236593757
259292968,-0.0551873054211959,0.532397734695673,1.0640613098978997,0.0359650999307632,-1.1853361129760742,-0.5263318419456482,-17.851089477539062,-44.11717987060547,-33.12713623046875,-0.1534868890249561,-0.3352128599394731,-0.8614255275183965,-0.3493140879588604
269367187,0.0394680139701813,0.5498924748539924,1.2177198397368192,-0.1043273210525512,-1.182032823562622,-0.4555630087852478,-18.15465545654297,-44.28939056396485,-33.0654296875,-0.1577507161653747,-0.3333434850323609,-0.8596926223982766,-0.3534480191417359
279440917,-0.0093641502706334,0.5336527031928301,1.1722189022779463,-0.2357756346464157,-1.121356725692749,-0.4606104791164398,-18.505844116210938,-44.25336456298828,-32.27032470703125,-0.1616699212246583,-0.330908356662828,-0.8582364831117426,-0.3574808694066648
289515136,-0.0797697388181462,0.4505027108192443,0.9662328038305044,-0.350992739200592,-1.072448492050171,-0.5252344608306885,-18.95160675048828,-44.34356689453125,-32.0511474609375,-0.1650501734071559,-0.3280697080259821,-0.8569324709339204,-0.3616564155907127
299589111,-0.054319180817157,0.3569423835903406,0.6942384019464254,-0.4320423305034637,-1.049741506576538,-0.6048680543899536,-18.83802795410156,-44.417877197265625,-32.431640625,-0.1679863861349591,-0.324897616616693,-0.8556553251706746,-0.366164074620841
309662841,-0.0569302766310051,0.2147825683653354,0.7254290745019912,-0.4903781116008758,-0.998313009738922,-0.7106780409812927,-19.094383239746094,-44.502418518066406,-32.522705078125,-0.1704782362000113,-0.3215697209592263,-0.8543161223100615,-0.3710446463619293
319737304,0.0253930921927094,0.2591945415437221,0.9922247386991976,-0.5505335927009583,-0.9253038167953492,-0.8344535231590271,-19.053375244140625,-44.209869384765625,-32.72528076171875,-0.1723978823403651,-0.3181802155519752,-0.8528704750095076,-0.376367359103121
329811035,0.0644533656122162,0.4934902041524648,1.3440496331453322,-0.5807340145111084,-0.7803560495376587,-0.9132551550865172,-19.31510162353516,-44.06532287597656,-32.533447265625,-0.1734885847964431,-0.3149310342813254,-0.851470844307544,-0.3817298026574472
339885253,0.184847339230962,0.5519032301545143,1.6183376989245413,-0.5638533234596252,-0.5729491114616394,-0.9000810384750366,-19.241233825683597,-44.05766296386719,-32.826416015625,-0.1737471882474299,-0.3120008355529086,-0.8501385955876672,-0.3869520304967405
349958984,0.3949962929788976,0.3117985890060663,1.5705536189645528,-0.502197802066803,-0.3324289917945862,-0.7692365646362305,-19.21378326416016,-43.98101806640625,-33.2064208984375,-0.1731964794460839,-0.3096244475086063,-0.849080191076529,-0.3914058565528226
360032958,0.4456981600817292,-0.0778945560634136,1.2660522012293338,-0.4184652864933014,-0.1507641077041626,-0.545041561126709,-18.97052001953125,-43.760780334472656,-32.81597900390625,-0.1721490478263139,-0.307824543033965,-0.8484207171102741,-0.3947036736447822
370106201,0.3318272680887952,-0.4539245019614696,0.7543354355126619,-0.3417437374591827,-0.0502677410840988,-0.2916533946990967,-18.298545837402344,-43.51694488525391,-33.67730712890625,-0.17093330480565,-0.3065128642605718,-0.8483974438350305,-0.3962996958897599
380180175,0.1688479887295514,-0.7876222035646439,0.3684592183828353,-0.3748015761375427,0.0099929375573992,-0.2034748196601867,-18.09680938720703,-43.12904357910156,-33.82275390625,-0.1698244943324504,-0.305244071271372,-0.848623873080217,-0.3972696096997463
390253906,-0.0128644865417852,-0.5646235955178738,0.2985182516723871,-0.4449293315410614,0.0828927755355835,-0.2194650620222091,-18.1893310546875,-43.14988708496094,-34.09942626953125,-0.16833039421557,-0.303836457957826,-0.8490607167195593,-0.3980503961139116
400328125,-0.2162174965392798,-0.1670972726047039,0.3674567633420229,-0.4711606800556183,0.1011356934905052,-0.2586846053600311,-18.107696533203125,-43.385101318359375,-34.86688232421875,-0.1666248542006573,-0.3022525908696648,-0.8493646090348177,-0.3993234917395015
410401855,-0.240569774442166,-0.0081862290650606,0.2434545360982418,-0.4137605130672455,0.0520826615393161,-0.2706331610679626,-17.93480682373047,-43.469337463378906,-35.05841064453125,-0.1649857897493782,-0.3007206417821297,-0.8495719391950776,-0.4007171767921673
420476074,-0.1997720462381839,-0.0480278255879879,0.1463484990864992,-0.3027170896530151,-0.0131051279604434,-0.2699234187602997,-17.85407257080078,-43.43112182617188,-35.21441650390625,-0.1637719095481711,-0.2994398138875592,-0.8495876086616684,-0.4021387098618137
430549804,-0.2215976917402818,-0.1700000083088874,0.221765851381421,-0.2034432888031005,-0.0935491397976875,-0.2476987838745117,-17.81780242919922,-43.575782775878906,-35.3232421875,-0.1630777537861639,-0.2984794829878803,-0.8493923200038177,-0.4035446200979302
440624267,-0.1335956196930259,-0.2827010893374681,0.2784171284079551,-0.1460143625736236,-0.1865027844905853,-0.1422147005796432,-17.638954162597656,-43.33796691894531,-35.70489501953125,-0.1630222560475833,-0.2976191906874162,-0.8491349267481973,-0.4047423811375624
450697998,0.140384622246027,-0.2991775923639536,0.2848059526622295,-0.1141233518719673,-0.2778978943824768,0.0122232586145401,-17.74541473388672,-43.55879211425781,-35.50323486328125,-0.1636591308339665,-0.2966439317099402,-0.8490005100731863,-0.405482569320568
460771972,0.3509237808879464,-0.3516203117847442,0.3641799336284398,-0.1025290116667747,-0.3319954872131347,0.1748393476009369,-17.87708282470703,-43.55743408203125,-35.45684814453125,-0.1649103291456227,-0.2954671481778195,-0.8490965593396933,-0.4056338296916497
470846191,0.6265513516426086,-0.3203735251277685,0.4124439060598611,-0.088865727186203,-0.2983090579509735,0.324830949306488,-17.9884033203125,-43.4824447631836,-35.6505126953125,-0.1664507020083026,-0.2941934810226572,-0.8494888725016748,-0.4051084968233261
480919921,0.8437053983796388,-0.3090583503872156,0.4127987108469009,-0.0640160366892814,-0.2024730741977691,0.4689820110797882,-18.004226684570312,-43.21247863769531,-36.01641845703125,-0.1679665427520885,-0.2930134812229413,-0.8501958312243143,-0.4038533876141766
490994140,0.8409815994389355,-0.5301549242049456,0.4102601322799921,-0.055384587496519,-0.0469736456871032,0.5151799917221069,-18.30345916748047,-43.29747772216797,-36.2344970703125,-0.1691382784681438,-0.2920771813061804,-0.8511852259240147,-0.4019537684419594
501067871,0.4190566021978855,-0.5178448932081461,0.3999719624996185,-0.0972843691706657,0.0978855416178703,0.4666076302528381,-18.36748504638672,-42.88352966308594,-35.8948974609375,-0.169594322302793,-0.2914038825532225,-0.8523204997923384,-0.3998391513568048
511142333,0.4544604720016941,-0.2239607310771942,0.1499731193244457,-0.1923067569732666,0.1938714534044265,0.3333342373371124,-18.95368194580078,-42.82508087158203,-35.62615966796875,-0.1692649563429855,-0.2907528562871255,-0.8534655791888617,-0.3980057922993694
521216064,0.3718857952980324,-0.0516109447717666,0.1240484044730663,-0.3156254887580871,0.254231721162796,0.1409727931022644,-19.10638427734375,-42.540260314941406,-35.980224609375,-0.168127416930346,-0.2899192714167279,-0.8545016517771266,-0.396871511995619
531290039,0.0723035311233252,0.1760796204835176,0.0927677155464887,-0.4185461103916168,0.2797734141349792,-0.0204922184348106,-18.794212341308597,-42.6539306640625,-36.4603271484375,-0.1663359338084784,-0.2888195570997461,-0.8553754595514044,-0.3965455854222536
541364013,0.1592853932773694,0.2403331892073154,0.1318915191888809,-0.4863603115081787,0.2523449957370758,-0.122073970735073,-18.54070281982422,-42.15689849853516,-36.6575927734375,-0.1641430208270733,-0.287462978796326,-0.8561068372169911,-0.3968667255027604
551437988,0.2987266702586785,0.165791450703144,0.0319815306723117,-0.5114348530769348,0.1510397642850875,-0.1425123512744903,-18.308204650878903,-42.21038818359375,-37.0106201171875,-0.1620479104691009,-0.2858294813538296,-0.8567280196897457,-0.3975663262874846
561511962,0.4261702701279893,0.041613866892457,-0.3329004137456416,-0.4977955222129822,-0.0159244500100612,-0.0984953641891479,-18.027587890625,-42.459205627441406,-37.13525390625,-0.160561362130308,-0.2838782377850982,-0.8572649876993108,-0.3984093630788137
571585937,0.4475925955262035,-0.0469745171427726,-0.6699807435244322,-0.433085560798645,-0.1857980787754058,-0.0299567393958568,-18.30111694335937,-42.14678955078125,-37.115234375,-0.1599707738240401,-0.2816991238933606,-0.8577187575117975,-0.3992161061219966
581658935,0.3589324979616329,-0.1555979734688997,-0.8281880227088928,-0.3587410151958465,-0.3414869904518127,0.0178403425961732,-18.207778930664062,-41.96752166748047,-37.6800537109375,-0.1603282625649237,-0.2794593530089035,-0.8580546014646677,-0.3999244120385507
591733154,0.3001332856535911,-0.2416080314487218,-0.8677402808964252,-0.2734604775905609,-0.410508930683136,0.0876974612474441,-18.489242553710938,-41.855247497558594,-37.31585693359375,-0.1614244681682592,-0.2772816825630451,-0.858283296364771,-0.4005082571812672
601806884,0.3963483286423608,-0.5751724620610476,-0.8644342250883579,-0.2272964566946029,-0.4664507806301117,0.1316012591123581,-18.34214782714844,-41.59056854248047,-37.60638427734375,-0.1629834432263718,-0.2752327822646269,-0.8585087399447131,-0.4008067580542334
611881103,-0.0536260839864611,-0.8060796512752771,-1.0319237118810414,-0.1975574344396591,-0.4777009487152099,0.128276452422142,-18.65082550048828,-41.44698333740234,-37.9049072265625,-0.1647792591730661,-0.2732596773876991,-0.8586737706195259,-0.4010689492223394
621954833,-0.2744814694594591,-0.5026514157295227,-1.2471230443537231,-0.2142266780138015,-0.5252596735954285,0.111736349761486,-18.92412567138672,-41.393310546875,-37.6512451171875,-0.1666895870903218,-0.271272108289999,-0.8587806969559824,-0.4013997020896661
632029052,-0.0038651509955525,-0.1468582021743059,-0.991627357327938,-0.2658128142356872,-0.6198794841766357,0.0425183549523353,-18.98939514160156,-41.26583099365234,-37.84375,-0.1687793022770598,-0.2690224161659597,-0.8587958219057488,-0.4020077483538987
642103271,-0.2019269592497497,0.2407552140116691,-0.7029571304529905,-0.3118698000907898,-0.6836507320404053,-0.1254104524850845,-19.305343627929688,-41.23640441894531,-37.78399658203125,-0.1709721737327703,-0.2664752598990415,-0.8585397286176053,-0.4033225483829499
652177001,-0.2891562568262219,0.8207885601073504,-0.5553758747011422,-0.3581348061561584,-0.7273073196411133,-0.2631158828735351,-19.533966064453125,-41.11338806152344,-37.87310791015625,-0.173080019260043,-0.2637657490896802,-0.8579676879416553,-0.4054164991417372
662251220,-0.0269077345393598,0.8234305990487336,-0.3808382229626179,-0.4128550589084625,-0.7383062243461609,-0.3139223456382751,-19.707000732421875,-40.91796112060547,-37.56640625,-0.1750792068987738,-0.2608625620319588,-0.8572230143943962,-0.4080032758507288
672324951,0.0726996177688241,0.1980079591751098,-0.3852110312193632,-0.4668796062469482,-0.6981530785560608,-0.2353516072034835,-19.96844482421875,-40.86958312988281,-37.83978271484375,-0.1769233339944402,-0.257716223703592,-0.8565814163920817,-0.4105469954959027
682398925,0.2131413770295679,-0.4596148225575685,-0.4342588475048541,-0.5049689412117004,-0.5730412602424622,-0.0823900178074836,-20.117935180664062,-40.499549865722656,-38.222412109375,-0.1784755222044326,-0.2544310253988501,-0.8562938036452373,-0.4125194009483724
692472900,0.4585298037998378,-0.9478916759759188,-0.3809346690744161,-0.5195377469062805,-0.4475660324096679,0.0467927269637584,-20.320053100585938,-40.617919921875,-38.33416748046875,-0.179605770435397,-0.2511503990496017,-0.8564637677298936,-0.4136845481211695
702547119,0.032962431468442,-1.0995470492988824,-0.5170236399531364,-0.4765868484973907,-0.3207122087478637,0.0585969239473342,-20.34366607666016,-40.20454406738281,-38.6280517578125,-0.1802764267096562,-0.2481374061448323,-0.8568703766709461,-0.4143687041834964
712621093,-0.2636643073689192,-0.658679012787342,-0.7796206834167242,-0.3933255672454834,-0.2374570816755294,-0.0367391891777515,-20.509536743164062,-40.14419555664063,-38.7535400390625,-0.1805862295909695,-0.2456534073372996,-0.8571949171297736,-0.4150422529841214
722695068,-0.3747827953811735,-0.1527221257716417,-0.8896499148875474,-0.2384062856435775,-0.1326193511486053,-0.141374796628952,-20.58904266357422,-39.91825866699219,-38.61627197265625,-0.1806107073483095,-0.2439728442400049,-0.8572235029532668,-0.4159627142830902
732769042,-0.5013739431396127,0.0220738846421241,-0.9781868609964848,-0.070445604622364,-0.0058317678049206,-0.1745676398277282,-20.53777313232422,-39.887451171875,-39.12860107421875,-0.1803988415321303,-0.2433105694373017,-0.8569994110526561,-0.4169031297772986
742843017,-0.4307056120026856,-0.0263958394944667,-0.8568401166975498,0.0486554913222789,0.128506064414978,-0.1445647329092025,-20.459625244140625,-39.78417205810547,-38.86932373046875,-0.1799163527343409,-0.243574590545916,-0.8567259886090564,-0.4175190587754644
752916748,-0.3175337716571986,-0.0410918888449668,-0.6170341662347316,0.0586275123059749,0.2251361161470413,-0.1234498396515846,-20.132041931152344,-39.99659729003906,-38.99774169921875,-0.1791078331236823,-0.244332501302618,-0.8565299944569033,-0.4178258382455105
762991210,-0.041763942887634,0.0349649303972721,-0.3358405588507652,0.01324431784451,0.2802606523036957,-0.0789817124605178,-20.130165100097656,-39.851593017578125,-38.75360107421875,-0.1779642092251626,-0.2451330828236501,-0.8564938983558691,-0.4179193935279984
773065185,-0.1039456737734377,0.0556903230398893,-0.2372632802426814,-0.0573947206139564,0.2972041964530945,-0.0437240675091743,-20.039810180664062,-40.227577209472656,-38.6158447265625,-0.1765975332600105,-0.2457041612643681,-0.8566513524285053,-0.4178412461173547
783139160,-0.3225678203016519,0.1877870094120502,-0.2992155862867832,-0.1332058608531952,0.2999765574932098,0.0130199044942855,-19.960250854492188,-40.16425323486328,-39.42913818359375,-0.1750566870280409,-0.2459529865456803,-0.8570084886754014,-0.4176107036586853
793213134,-0.1406769562561065,0.0673994655340909,-0.2623842774957418,-0.2155460566282272,0.3029419183731079,0.0236964374780654,-19.610519409179688,-39.927825927734375,-39.34716796875,-0.1734203460304071,-0.2458227237811305,-0.8575338515558139,-0.4172916282140577
803286865,-0.3955224357448518,0.0547720391511917,-0.3819511526405811,-0.3325397968292236,0.302556574344635,-0.0027572750113904,-19.38143920898437,-39.88780212402344,-39.43963623046875,-0.1715550309577721,-0.24526942536183,-0.8581612161854945,-0.41709861413983
813361083,-0.4214584026426076,0.0351899713248014,-0.4376958362162113,-0.4402053952217102,0.2948701679706573,-0.0390728451311588,-19.35018920898437,-39.77500915527344,-39.7103271484375,-0.1694052165468285,-0.2442502510949291,-0.8588540719323412,-0.4171490708387465
823434814,-0.2089009629808366,-0.1347381407916545,-0.453584310221672,-0.4919074773788452,0.3145501315593719,-0.0666554719209671,-19.24211883544922,-39.58039093017578,-39.617919921875,-0.1670400389732154,-0.2429109424589202,-0.8595717149451849,-0.4174068335849821
833509277,-0.122472460393235,-0.2204185284256935,-0.5415606998383998,-0.4563680291175842,0.3316788971424103,-0.0715256184339523,-18.95844268798828,-39.22332763671875,-39.99859619140625,-0.1645127599164238,-0.2415843645589634,-0.8602848956001062,-0.4177110251247616
843583007,0.1411542914442718,-0.2197521734714508,-0.8995213205605744,-0.331193596124649,0.2507670223712921,-0.06372682005167,-18.88958740234375,-39.20758056640625,-40.09478759765625,-0.1623103812126289,-0.2405483099610732,-0.8608692919771279,-0.4179663633108192
853657226,0.2160736310891807,-0.1580769308030605,-1.3155121054470538,-0.1363200098276138,0.1408625245094299,-0.0562089309096336,-18.8953857421875,-39.108154296875,-40.6561279296875,-0.1608957820312232,-0.2399913287329364,-0.8611842469478105,-0.4181846733411702
863730957,0.1459119343001395,-0.1348597213447094,-1.3443863177537918,0.08167465031147,0.0683012381196022,-0.0519907511770725,-18.700592041015625,-38.93730163574219,-40.75439453125,-0.160334850892158,-0.2401435441229631,-0.861182021263855,-0.418317187694507
873804931,0.0394556659452617,-0.1783101560145616,-1.0554542250722647,0.2625699639320373,0.0740729868412017,-0.0730529129505157,-18.773651123046875,-39.01292419433594,-40.631103515625,-0.1603592583930715,-0.2410963018633387,-0.8608850435125197,-0.418371043407946
883879150,-0.1500113324429839,-0.2185252620249986,-0.5957113922208547,0.3950081765651703,0.1582571119070053,-0.0857780277729034,-18.721900939941406,-39.070045471191406,-40.408447265625,-0.160465593182323,-0.2428328804886184,-0.8604088155948832,-0.4183058299674865
893952880,-0.2265008440140634,-0.2744388724267482,-0.1507242299526929,0.529492974281311,0.29741171002388,-0.0946758762001991,-18.514976501464844,-39.640167236328125,-40.764404296875,-0.1603420407929995,-0.2453868271139297,-0.8598279167732643,-0.4180569817394007
904027343,-0.4209281682234257,-0.1164747543483972,-0.0318085121929645,0.6237598061561584,0.4254468977451324,-0.0598646327853202,-18.430587768554688,-39.64292144775391,-40.140869140625,-0.1598900165674809,-0.2487416230486338,-0.8592306124016912,-0.4174751775697551
914101074,-0.520936283352226,-0.0280821851462125,-0.1766945375114679,0.6508635878562927,0.4886307120323181,-0.034659557044506,-18.32040405273437,-40.10743713378906,-40.12310791015625,-0.159184275473442,-0.252512706200611,-0.8586962636889283,-0.4165794551443084
924175048,-0.6315272403590381,0.0721866998106241,-0.4670084399402141,0.6472454071044922,0.5076049566268921,-0.0198787469416856,-18.354705810546875,-40.05709838867188,-39.87274169921875,-0.1583491239182612,-0.2563936832584493,-0.8582055379789837,-0.4155370262285652
934249023,-0.6139125270828605,0.0237502934217453,-0.7014993328601121,0.6338620185852051,0.5051752328872681,-0.0179926641285419,-17.985496520996094,-40.481475830078125,-40.2938232421875,-0.1574660818814172,-0.260242228161291,-0.8577383022403822,-0.4144434803935904
944322021,-0.6143817520298064,-0.0948258171200752,-0.8652110546797513,0.6027243137359619,0.4718218147754669,-0.0265488680452108,-17.883445739746094,-40.49610137939453,-39.46856689453125,-0.1565931107619856,-0.2639679304292747,-0.8572636291354284,-0.4133989468465535
954396240,-0.4579380119191482,-0.2631061620295047,-1.0188391893804072,0.5588873028755188,0.3554214835166931,-0.0267271008342504,-17.553611755371094,-40.70181274414063,-39.24127197265625,-0.1559555194181128,-0.2673678985788791,-0.8567607776440087,-0.4124963332851876
964470214,-0.210395512387529,-0.4033236110150814,-1.1614479174166916,0.5332828760147095,0.2404187321662902,-0.0098216198384761,-17.486610412597656,-40.85872650146485,-39.14361572265625,-0.1557730569283477,-0.2703543396622201,-0.8562148208722993,-0.4117517549347553
974543945,-0.04042272087913,-0.3840986860632896,-0.9821306301862,0.5520164370536804,0.1020242720842361,0.0327369794249534,-17.525047302246094,-41.07160949707031,-38.98211669921875,-0.1561491614617371,-0.2730399384035313,-0.855625327994353,-0.4110618326911005
984618164,-0.0147529671695083,-0.4090244530051946,-0.8077624897956848,0.6420677900314331,-0.0398415215313434,0.1498843729496002,-17.483009338378906,-41.3091049194336,-38.3511962890625,-0.1573739606582959,-0.2755903028516294,-0.855011729164184,-0.4101688696928837
994691894,0.0025924641786143,-0.4633955101400613,-0.6195879423707723,0.7844540476799011,-0.096332661807537,0.281059056520462,-17.775405883789062,-41.72742462158203,-37.79718017578125,-0.159480287369939,-0.2783173367764078,-0.8543981380348237,-0.4087900477655948
1004766113,-0.1926052964139729,-0.1889262425750494,-0.3746645027637481,0.9276213049888612,-0.014030865393579,0.3752284348011017,-17.878143310546875,-41.92609405517578,-37.50860595703125,-0.1619710150615167,-0.2816049952017504,-0.8538217910373692,-0.4067583466289282
1014839843,-0.3313190263057127,0.2470505147635936,-0.1693248855262994,1.0511231422424316,0.1636191010475158,0.4024340212345123,-17.954246520996094,-42.28422546386719,-37.01239013671875,-0.1642478370329594,-0.2856987334719097,-0.8532628445126618,-0.4041550375718022
1024914062,-0.3270641818728297,0.5442921706289052,-0.1398795953333377,1.0992552042007446,0.3345958888530731,0.3727645576000213,-17.735000610351562,-42.60321807861328,-36.97027587890625,-0.1659086414925559,-0.29053602459666,-0.8526986194815721,-0.4012084272595765
1034988281,-0.1064074973097071,0.5993576397687196,-0.262486568826437,1.040603518486023,0.4204325675964355,0.3147161602973938,-17.96514892578125,-42.973609924316406,-36.46282958984375,-0.1669335860330913,-0.2956335386481959,-0.852131807544347,-0.3982529958045033
1045062011,0.181705643671751,0.4941495448440313,-0.3675695760667324,0.9176919460296632,0.4448561668395996,0.2375380098819732,-17.691177368164062,-43.37236785888672,-36.1494140625,-0.1674419974753589,-0.3004837453778112,-0.8515769756760057,-0.3955875506079153
1055136230,0.1861267480496317,0.3389858711391687,-0.3003881371974944,0.7793999314308167,0.445294052362442,0.1599130630493164,-17.779647827148438,-43.80126953125,-35.919921875,-0.1675142158250942,-0.3048429916745823,-0.851056054419685,-0.3933363161106407
1065209960,0.0898699482783675,0.3528425470560788,-0.250434896504879,0.6229437589645386,0.3927384316921234,0.0725496560335159,-17.84613037109375,-43.646575927734375,-35.357421875,-0.1672854879847276,-0.3085892453677105,-0.8505533928295796,-0.3915955951961288
1075283935,0.1283540292451158,0.3588970247894525,-0.2459995444059372,0.4497722685337066,0.3404811918735504,0.0022407481446862,-17.743011474609375,-44.10587310791016,-35.071533203125,-0.1668456157372484,-0.3115617799402636,-0.8500945248376641,-0.390424384920312
1085357666,0.2496687344379723,0.2299281150490045,-0.0996802714139223,0.3168328702449798,0.3795742690563202,-0.0717762187123298,-17.687278747558594,-44.26214599609375,-35.169921875,-0.1660279032455508,-0.3139141747061855,-0.849726157549118,-0.3896896469337064
1095432128,0.1567672364439815,0.067509355649352,0.1003127240985631,0.1922650635242462,0.4002871811389923,-0.1707143932580948,-17.417709350585938,-44.55947113037109,-34.6650390625,-0.1646317180217427,-0.3158765973739981,-0.8494110593897102,-0.3893830767011238
1105505859,0.096299013211485,-0.2894698528200388,-0.0489186369478702,0.1149047538638114,0.2980723977088928,-0.1922649592161178,-17.40381622314453,-44.37952423095703,-34.383544921875,-0.1631110742802625,-0.317353826268691,-0.8491100849150341,-0.3894784915408992
1115580078,0.1338494300573132,-0.7076683768838644,-0.5319488218843936,0.1436376273632049,0.1863612681627273,-0.1841322481632232,-17.09722900390625,-44.41563415527344,-34.5718994140625,-0.1620229159521474,-0.318498174296812,-0.8487485642780468,-0.3897864412844834
1125653808,-0.014357081453409,-0.7672463550120592,-0.786363143414259,0.2743743360042572,0.0785064548254013,-0.1928780674934387,-17.163803100585938,-44.59811401367188,-34.29443359375,-0.1615496829586274,-0.3197804616773042,-0.8481609007845463,-0.3902119272282439
1135728027,-0.080509944459889,-0.5092500833421946,-0.8947504528969525,0.4438554048538208,-0.0999550744891166,-0.1480985581874847,-16.844482421875,-44.77741241455078,-34.34393310546875,-0.1619957812349018,-0.3214510961246607,-0.8472397417807631,-0.3906551735971439
1145801757,-0.0233430460614152,-0.1748795970439911,-1.1268728631198406,0.6096087098121643,-0.372759461402893,-0.1120612025260925,-16.837318420410156,-44.71442413330078,-34.1290283203125,-0.1638177230300975,-0.3233493010161257,-0.8459361993342799,-0.3911531977552463
1155875732,0.2494428167276084,-0.0624462270408868,-1.199314414474368,0.7437538504600525,-0.6350952982902527,-0.0426904894411563,-17.053421020507812,-44.88914489746094,-33.7052001953125,-0.1671896423346272,-0.3252996269842841,-0.8442463727753132,-0.3917599926593327
1165950195,0.4111768452661111,0.0572737928390502,-1.0056330863267182,0.8473462462425232,-0.7791022658348083,0.0102265197783708,-17.426612854003906,-44.99946594238281,-32.84283447265625,-0.1718016682692393,-0.3272724375183318,-0.8422932580720744,-0.3923249623989475
1176023925,0.294623472723551,0.3430418685317039,-0.5968213992893695,0.9200928211212158,-0.7449260950088501,0.0170370712876319,-17.55608367919922,-45.29605102539063,-32.5853271484375,-0.176813026346529,-0.3295028047802,-0.8401922783657446,-0.3927366257452904
1186098144,0.0830995408279821,0.5246311923474073,-0.3668342475295066,0.9713906049728394,-0.6864824891090393,-0.0045739486813545,-17.900054931640625,-45.79668426513672,-31.90484619140625,-0.1817283525562671,-0.3320749551134194,-0.8379798594340784,-0.3930530720838668
1196171875,-0.0680550433659926,0.3554816633880138,-0.3262292654186487,0.9985468983650208,-0.6402004957199097,-0.0184450782835483,-18.001251220703125,-46.31104278564453,-31.85504150390625,-0.1864331835951526,-0.3349528636637838,-0.8356849887891563,-0.3932934677967565
1206245849,0.0175728468958288,0.1407721602588892,-0.3130079647958278,0.9334682822227478,-0.663857102394104,-0.036971628665924,-18.342056274414062,-46.58045196533203,-30.93353271484375,-0.1910473728389502,-0.3377694370064058,-0.8333680931396451,-0.3935863996002824
1216319824,-0.0581558363705873,-0.0273778362691402,-0.2243792487502098,0.8428570032119751,-0.6862849593162537,-0.0307210013270378,-18.723182678222656,-46.69298553466797,-30.8160400390625,-0.1955790668440881,-0.3401783943825814,-0.8311201955950339,-0.3940390680612485
1226393798,-0.3237725564489141,-0.1768728166878223,-0.184717684969306,0.7902558445930481,-0.6655463576316833,0.0030177859589457,-18.950965881347656,-46.92061614990234,-30.3587646484375,-0.2000061526282039,-0.3422400038210709,-0.829019067442565,-0.3944576701618072
1236468017,-0.5055241216216236,-0.0484112719476223,-0.1913192751914262,0.7543386220932007,-0.6216589212417603,0.0071517885662615,-19.09136962890625,-47.20515441894531,-30.048828125,-0.2042486972537442,-0.3441664723620499,-0.8270456438410567,-0.3947498418529166
1246541992,-0.4959412505663931,0.1492038885176181,-0.2772854940295219,0.720477283000946,-0.52454674243927,-0.0299297980964183,-19.24542999267578,-47.337364196777344,-29.27044677734375,-0.2080970697696771,-0.3460952350850196,-0.8251471419429446,-0.3950265809703298
1256615966,-0.3444283544540405,0.0201595754534006,-0.2577484343886375,0.7178927659988403,-0.355359673500061,-0.0919313356280326,-19.386215209960938,-47.20518493652344,-28.76885986328125,-0.2112677595164347,-0.348250508673062,-0.8232999301468659,-0.3953035702334712
1266689941,-0.343020752678439,-0.1064566336810588,-0.1491232244968414,0.7565727829933167,-0.1616160571575164,-0.1459418535232544,-19.417556762695312,-47.53314208984375,-28.162109375,-0.2135842472786899,-0.350914015207097,-0.8214874874955173,-0.3954737301291139
1276763671,-0.3288139481496065,-0.0119523036003112,-0.1488110898077488,0.8196132779121399,-0.0410501174628734,-0.1806251257658004,-19.6341552734375,-47.84972381591797,-28.01837158203125,-0.2152337043581952,-0.3541624256693342,-0.8196549232537078,-0.395486213099559
1286837890,-0.3610658201958984,0.1794230856925249,-0.4550678267776966,0.9258028864860536,-0.0517179444432258,-0.1398891359567642,-19.89219665527344,-48.07707977294922,-27.84930419921875,-0.2168309570258483,-0.3578505863959922,-0.8177221579863453,-0.3952947134339459
1296911865,-0.2399248276021331,0.3031991029649972,-0.8596621883809566,1.0433590412139893,-0.1391115337610244,-0.0628610700368881,-19.72960662841797,-48.20172119140625,-27.5244140625,-0.2189862458183216,-0.3618335300921633,-0.8156351245335801,-0.3947923285541855
1306986083,-0.0584721357781439,0.3658662792801856,-0.798202049767971,1.1405547857284546,-0.2151032388210296,0.0131420847028493,-19.54583740234375,-48.39998626708984,-26.66925048828125,-0.2218558300104833,-0.3659894518884327,-0.8133877111123592,-0.3939951600887718
1317060058,-0.0452229242350906,0.3280067964851856,-0.4867606036365032,1.2191210985183716,-0.2267962098121643,0.053775381296873,-19.73673248291016,-48.86320495605469,-25.74993896484375,-0.2251856697193793,-0.3703369954331769,-0.8110114392143439,-0.3929405958416976
1327134033,-0.0656668695878237,0.2603793674141168,-0.1797720452606677,1.2816625833511353,-0.1385643482208252,0.0595781430602073,-19.780258178710938,-49.0478515625,-25.169189453125,-0.2285451918643922,-0.3750011645913417,-0.8085551930783327,-0.3916373151792244
1337208007,-0.1581795874599367,0.2359054358929395,0.0355278249770402,1.284533977508545,-0.0284233000129461,0.0349340140819549,-19.744117736816406,-49.41817474365234,-24.9931640625,-0.2314937879065222,-0.3800272561692517,-0.8061159130062925,-0.3900858463484509
1347281738,-0.2861935345631092,0.1134481000036001,-0.0583919832140207,1.2102495431900024,0.0160160697996616,0.0128444228321313,-19.770545959472656,-49.774879455566406,-24.35821533203125,-0.2340038701165677,-0.3850680048017026,-0.8037481038270492,-0.3885275983301886
1357355957,-0.3047968204852193,0.0024906477719545,-0.2416121231019496,1.0707579851150513,-0.0019826118368655,-0.0016796039417386,-19.897933959960938,-50.29868316650391,-23.6854248046875,-0.2362030895957517,-0.389704941385992,-0.8015417383739326,-0.3871290616578106
1367429687,-0.1947289375044405,-0.0810042125165462,-0.2076671834021806,0.9118326902389526,-0.0888863578438758,-0.0087926406413316,-20.042892456054688,-50.35442352294922,-22.57379150390625,-0.2382814605456881,-0.3936289611072616,-0.7995313039490969,-0.3860414320784478
1377504150,0.0531967526584863,0.0499649311304092,-0.1393418351948261,0.7964175939559937,-0.2124777138233184,0.0095350202172994,-19.948760986328125,-50.60966491699219,-22.64093017578125,-0.2405371173456256,-0.3967644417908659,-0.7976506512377092,-0.3853222648951823
1387577880,0.3225388134028762,0.2612731013834476,-0.1706406442999839,0.7575303912162781,-0.2714691162109375,0.0450424142181873,-20.000282287597656,-50.76898956298828,-22.10595703125,-0.2430901991574119,-0.3993454408030819,-0.7958515037031144,-0.3847736188667761
1397651855,0.1981162418551743,0.4839560676097869,-0.3037257571876048,0.7792620062828064,-0.2150032520294189,0.0710560902953147,-20.30877685546875,-51.23931884765625,-21.3983154296875,-0.2456885121708348,-0.4018491802814486,-0.7941176815535658,-0.3840982708774093
1407725830,-0.211696219722554,0.5360398905903101,-0.4388105194598436,0.8571094274520874,-0.0260887257754802,0.106153093278408,-20.51624298095703,-51.21107482910156,-20.9241943359375,-0.2479672790227951,-0.4047463553430435,-0.7924622340378371,-0.3830092891277751
1417799804,-0.627272359393537,0.3784381760835647,-0.3654372402131557,0.977984607219696,0.2775879502296448,0.1790930926799774,-20.48686981201172,-51.47183227539063,-20.87677001953125,-0.2495274309258413,-0.4084515512738321,-0.7910021089058921,-0.3810761215769617
1427874023,-1.0263161011323332,0.2109095263242721,-0.0871188960045576,1.112780213356018,0.6658523082733154,0.3771044313907623,-20.436004638671875,-51.05903625488281,-20.4820556640625,-0.2502117061608316,-0.4131800578226203,-0.7899639047400422,-0.3776683661579175
1437947753,-0.8924927370980381,-0.0121820207029581,0.0849579185783863,1.189643144607544,0.9399508237838744,0.5178724527359009,-20.424156188964844,-51.35234069824219,-19.69281005859375,-0.2501052492328838,-0.418737785653701,-0.7894257023866178,-0.3727106770753952
1448022216,-0.5727803062275052,0.1223854396969079,-0.1536713893204927,1.219591736793518,1.03285813331604,0.5707715749740601,-20.732460021972656,-51.26145935058594,-19.2757568359375,-0.2495534428766121,-0.4247065919445092,-0.7891358025810223,-0.366895027386962
1458095947,-0.038664223306626,0.1739624821990728,-0.5346791236311197,1.220118522644043,1.0229936838150024,0.5772303938865662,-20.628952026367188,-51.674835205078125,-18.60711669921875,-0.2489291290161531,-0.4307266608802204,-0.7888592244253521,-0.3608460869943406
1468169921,0.3629164895638823,0.0694277564913034,-0.4775549683958291,1.2036656141281128,1.0252199172973633,0.5391482710838318,-20.566192626953125,-51.710296630859375,-18.433349609375,-0.2482782978933689,-0.4366870860586367,-0.7884957572509876,-0.3548758206492263
1478243896,0.3871303819093853,0.0638105011314153,-0.0997036522895097,1.2042125463485718,1.0538926124572754,0.5001619458198547,-20.75262451171875,-52.140098571777344,-17.51617431640625,-0.247436851165789,-0.442652559419479,-0.7880477311090651,-0.3490193419581781
1488317871,0.358753378535062,0.0564993013352155,0.0850397516429424,1.2264797687530518,1.1368412971496582,0.4587790966033935,-20.886871337890625,-52.22795867919922,-17.15087890625,-0.2463056405589083,-0.4487771152296116,-0.7875115345503353,-0.3431593872450033
1498391845,0.2732734088439494,0.030285832670331,0.4514221637517213,1.227711796760559,1.314897894859314,0.388837605714798,-20.89739990234375,-52.4892578125,-16.66754150390625,-0.2445582093116421,-0.455207861847948,-0.7869517948768735,-0.3371707329866925
1508465820,0.0754290427327156,0.3683253628700971,0.916655995234847,1.177573800086975,1.5715835094451904,0.3034886419773102,-20.80899810791016,-52.40283203125,-16.17071533203125,-0.2416658350310546,-0.4619976221922505,-0.7865173492923324,-0.330977868723448
1518539794,0.0321222543172538,0.7385504218816756,1.304044078232348,0.9247555732727052,1.7170895338058472,0.158784419298172,-20.80970764160156,-52.67339324951172,-15.83648681640625,-0.2373944100832657,-0.4687468456365829,-0.7863935119325254,-0.3248160824277317
1528614013,0.1088784540005028,0.9265858530968428,1.1432324617683889,0.4716371297836303,1.7584668397903442,0.0352648831903934,-20.517677307128903,-52.400352478027344,-15.95172119140625,-0.2318266952381868,-0.4742411384717493,-0.7869368131520209,-0.3195032427913994
1538687988,0.2376837706770747,0.934341874051094,1.1892132916986942,-0.0083578415215015,1.78097403049469,0.0502047650516033,-20.173912048339844,-52.647117614746094,-15.642822265625,-0.2252783570615913,-0.477935438199047,-0.7884879980850806,-0.314824110455362
1548761962,0.0265769316824153,0.9644722238987684,1.5144322110310195,-0.4248733222484588,1.8222215175628664,0.0439750999212265,-20.116012573242188,-52.58900451660156,-15.8355712890625,-0.2178816633357896,-0.4798175331103548,-0.7911166963381973,-0.3105430241007931
1558835937,0.1194808042965829,0.4621346964240074,1.5927829864293337,-0.6548542380332947,1.8453651666641235,0.0563742406666278,-19.694358825683597,-52.57975006103516,-16.072021484375,-0.2097882971315452,-0.4804139973191489,-0.794519343349249,-0.3064806240304055
1568909912,0.4941197342276573,0.4230155689567327,1.3791095483496785,-0.7319772243499756,1.7484647035598757,0.0434339419007301,-19.41521453857422,-52.43130493164063,-16.86474609375,-0.2016011184821906,-0.4803139814867588,-0.798169153750138,-0.3026241920217951
1578984130,0.7225516924347728,0.514693151178956,1.0517653074264526,-0.6938719749450684,1.5648024082183838,0.0036840015091001,-19.26019287109375,-52.46475982666016,-17.12701416015625,-0.1938835107963528,-0.4799058883820894,-0.8015995609182277,-0.2992283939016004
1589057861,0.6649575816001743,0.3809042739361524,0.8396633564472198,-0.6021617650985718,1.3642759323120115,-0.0531393326818943,-19.10919952392578,-52.26497650146485,-17.2763671875,-0.1868034189318084,-0.4795457747145036,-0.8046086269374878,-0.2962183620527805
1599132080,0.4745287889750674,0.1184001694530248,0.662366176867485,-0.5154184699058533,1.18397319316864,-0.1051220297813415,-18.78241729736328,-52.09337615966797,-17.697265625,-0.1805341178728696,-0.4792807683724732,-0.8070645334053644,-0.2938438492783428
1609205810,0.1826591267379932,-0.0670914224982261,0.4647825805842876,-0.447979211807251,0.9632245898246764,-0.1287248134613037,-18.28717041015625,-52.02861022949219,-18.1378173828125,-0.1750476193194627,-0.4790508767402888,-0.8090666137064074,-0.2920269812194239
1619280029,-0.0005048225583566,-0.0267746096789836,0.1510559461250901,-0.3297896683216095,0.6560055017471313,-0.1033030524849891,-17.88695526123047,-51.81784057617188,-18.582763671875,-0.1708030585494285,-0.4787720136052436,-0.8105871631965001,-0.2907784001124347
1629353759,0.1365827274787239,0.1574263579398393,0.0160825352728366,-0.1745476275682449,0.3937573730945587,-0.0519506484270095,-17.595947265625,-51.895118713378906,-18.4549560546875,-0.1681084470335694,-0.4785703984517108,-0.8115364866070477,-0.2900319861706763
1639427734,0.2574194946952164,0.1867927376776933,0.1967681882470846,-0.0291136298328638,0.2463761121034622,-0.0255608595907688,-17.577659606933594,-51.60566711425781,-18.56488037109375,-0.166570899351814,-0.4786497795117544,-0.8120049754455362,-0.2894762470873295
1649502197,0.1840332463691011,0.2316086154818534,0.4412807089656591,0.068428635597229,0.1935155689716339,-0.031890396028757,-17.444175720214844,-51.59706878662109,-18.62554931640625,-0.1656230989820228,-0.4790818230924188,-0.8121065043143597,-0.2890201928896692
1659575927,0.1209097137216944,0.242530991512537,0.4664806166738271,0.1333340555429458,0.1064362749457359,-0.0312270279973745,-17.564239501953125,-51.74867248535156,-18.5687255859375,-0.1650411433858773,-0.4797646676732327,-0.8119434642273943,-0.288678317152958
1669650146,0.21039761301307,-0.0143482588261365,0.2337286763757467,0.1618205606937408,-0.0967653095722198,0.0087656611576676,-17.577606201171875,-51.727569580078125,-18.782958984375,-0.1651631048404356,-0.4804174787710869,-0.8115860923549115,-0.2885276348794258
1679723876,0.4739644696231931,-0.313169877359271,-0.1380821905225515,0.1279385685920715,-0.3346518576145172,0.0362923853099346,-17.688079833984375,-52.27727508544922,-18.551513671875,-0.1663109411119594,-0.4806863353394981,-0.8110919543551158,-0.2888100712765379
1689798095,0.4780538212960585,-0.3704273035854101,-0.2034662245810031,0.0578273944556713,-0.5584007501602173,0.019289169460535,-17.670425415039062,-51.94061279296875,-18.41278076171875,-0.1683420913317015,-0.4803994373710195,-0.8105357590178204,-0.289670751103985
1699871826,0.4400835350703447,-0.2402092705667018,-0.0625105244487524,-0.0357582159340381,-0.7485635280609131,-0.0261555425822734,-17.568878173828125,-51.97225189208984,-19.09063720703125,-0.1709599733808423,-0.4795219503216868,-0.809988962036705,-0.2911175056860027
1709945800,0.2925008362800814,-0.0187532157868146,0.1268637541547417,-0.1248601302504539,-0.92289137840271,-0.0718948021531105,-17.9552001953125,-51.768165588378906,-18.9842529296875,-0.1740330263392363,-0.4780358904644646,-0.8094476035567051,-0.2932382870420416
1720020019,0.1020037367922719,0.1069482165902852,0.2764905442595481,-0.1787134706974029,-1.020556092262268,-0.0988277047872543,-18.02670288085937,-52.024208068847656,-18.9534912109375,-0.177486845433765,-0.4760682972564402,-0.8088779908939835,-0.2959284852110508
1730093994,0.0461905728240031,0.1708721149682998,0.462558767054975,-0.213567852973938,-1.0335551500320437,-0.1126260757446289,-18.36166381835937,-51.6870346069336,-18.84381103515625,-0.1810260625179338,-0.4738695096851276,-0.8083282764560324,-0.298801801507377
1740167968,-0.0186417182363569,0.2442360418647527,0.7835854953944683,-0.2521632611751556,-1.008429765701294,-0.1246583089232444,-18.532798767089844,-51.79825592041016,-18.889892578125,-0.184421588988471,-0.4715372251878728,-0.8078394767950162,-0.3017229217060584
1750241943,0.0560479408385232,0.1484422564953565,1.0056611433774232,-0.2905170321464538,-0.9826071858406068,-0.1168389990925788,-18.77887725830078,-51.50431060791016,-18.94287109375,-0.1876067480493232,-0.4690925411332027,-0.8074638155530514,-0.3045621132476264
1760315917,0.2701636245266534,-0.0274894799500703,1.1070195771366358,-0.4032822251319885,-1.03169846534729,-0.0970818251371383,-18.87017822265625,-51.74846649169922,-18.87896728515625,-0.1907570704715858,-0.4663146035000592,-0.8072440120815544,-0.3074403637730016
1770389892,0.3396634050745516,-0.0307639715760946,1.0217144525557755,-0.5857816934585571,-1.1662529706954956,-0.1007777601480484,-18.96080017089844,-51.563079833984375,-18.890869140625,-0.1940853512761935,-0.4627604488359038,-0.8072681305987646,-0.3106475952540867
1780463623,0.0720676400082185,0.2561971132934093,0.7520762584090233,-0.8273867964744568,-1.3384876251220703,-0.0811022371053695,-19.026443481445312,-51.21832275390625,-18.6934814453125,-0.1977488221866033,-0.4580775455240206,-0.8075924780751389,-0.3144118217496737
1790538085,-0.0214005154252052,0.3149205204188823,0.5218237337112427,-1.1035473346710205,-1.4328631162643433,-0.0565220527350902,-19.389686584472656,-50.93658447265625,-19.03338623046875,-0.2015376102069597,-0.4520541231563738,-0.8084178192386662,-0.3185756293639868
1800612060,-0.2479363211547955,0.1128437043696641,0.5609726717948913,-1.2038801908493042,-1.432823896408081,0.0346667170524597,-19.62568664550781,-50.90225982666016,-19.20220947265625,-0.2053531761071633,-0.4450454003142183,-0.8096514583655157,-0.3228453285012747
1810686035,-0.454493022564426,0.0214192201256752,0.5968330897271633,-1.1481561660766602,-1.2807340621948242,0.1544626206159591,-20.01172637939453,-50.824317932128906,-19.25048828125,-0.2090897377437766,-0.4379462333724874,-0.8110982519131312,-0.3265031794845455
1820760009,-0.3968971946967765,0.033368601116538,0.7607277668982744,-1.0561467409133911,-1.0330735445022583,0.182724729180336,-20.522254943847656,-50.58495330810547,-19.7855224609375,-0.2122438543026943,-0.4314041097384347,-0.81267962022468,-0.3292335275877932
1830833740,-0.279302898266539,0.0515548306703567,0.9343477192699908,-0.933192253112793,-0.7680871486663818,0.1272391080856323,-20.669662475585938,-50.32221984863281,-20.31378173828125,-0.214453868337782,-0.4257263058582982,-0.814243601485043,-0.3313217433002944
1840907958,-0.0046907881647348,-0.0400701445817947,1.0059668483257294,-0.8045347929000854,-0.5821788907051086,0.036839734762907,-20.90545654296875,-50.17218780517578,-20.34027099609375,-0.2158150957160782,-0.4210104524241471,-0.8155945562099854,-0.3331358644133001
1850981689,0.0746533821851015,-0.149914667135477,1.04182960434556,-0.718851625919342,-0.4540211856365204,-0.0667449757456779,-21.089385986328125,-49.91940307617188,-20.63458251953125,-0.2165106855401401,-0.417104496446092,-0.816697471936185,-0.3348912529999565
1861056152,0.016602175232768,-0.1569832903474569,0.9987772290825844,-0.6602726578712463,-0.3376937508583069,-0.1194322779774665,-21.119911193847656,-49.969688415527344,-21.28021240234375,-0.2166519600939166,-0.4137684611330356,-0.8176352428644389,-0.3366453892062174
1871129882,0.2305409131851047,-0.1948299136608839,0.9221779735267162,-0.5902949571609497,-0.2092838436365127,-0.0883388072252273,-21.183380126953125,-49.40673828125,-21.4539794921875,-0.2163321877533736,-0.4109194860332124,-0.818578135737798,-0.3380464842653409
1881204101,0.3279338773794472,-0.3589630757629871,0.8018553115785122,-0.4748928248882293,-0.1678244620561599,-0.072546474635601,-21.070098876953125,-49.29035949707031,-21.7109375,-0.2158777586766662,-0.4085531965181304,-0.8194565949324527,-0.3390751983309908
1891277832,0.0047822658404707,-0.1463648656994104,0.2539700848937034,-0.2969838082790375,-0.157733216881752,-0.0813373029232025,-21.179664611816406,-49.309852600097656,-22.1309814453125,-0.215577055587803,-0.4068354864533396,-0.8200653297547272,-0.3398591730218936
1901351806,-0.2501375940587371,0.1723223137766122,-0.2251987484395504,-0.0805874243378639,-0.1486842781305313,-0.0711013153195381,-21.410987854003903,-49.40277099609375,-22.361328125,-0.2155735765782649,-0.4059661999501227,-0.8202726805373003,-0.3404001919569746
1911426025,-0.3394142526190727,0.1827542759418487,-0.4749374793738126,0.1126776412129402,-0.1166192889213562,-0.0335805714130401,-21.27865600585937,-49.31949615478516,-22.56982421875,-0.2158906831486372,-0.4059664195082473,-0.8201230434181171,-0.3405593636231333
1921499755,-0.308552519756928,0.0272305367529392,-0.5171335300683975,0.2372260689735412,-0.0512990988790988,0.016355687752366,-20.99694061279297,-49.007957458496094,-22.0294189453125,-0.2164155797773614,-0.4066447644145672,-0.8197413472507091,-0.3403356382064949
1931574218,-0.3402787604939192,-0.077399466022849,-0.2867775449961424,0.2364039421081543,0.0223783142864704,0.0309063997119665,-21.40039825439453,-49.40882873535156,-21.8873291015625,-0.2168126821262123,-0.4076755543458136,-0.8193713895441506,-0.3397403178740674
1941647949,-0.3322202494617551,-0.0357043505877256,-0.0655927083730697,0.132449060678482,0.0446976870298385,0.0404352582991123,-21.306739807128903,-49.39213562011719,-21.97808837890625,-0.216930517044509,-0.4085463988783803,-0.8191866182197924,-0.339063736333735
1951723144,-0.2541371120236814,-0.0275163679569959,0.0345884983003139,0.0168156642466783,0.0635693743824958,0.0678048282861709,-21.1328125,-49.28310394287109,-21.76519775390625,-0.2168293229290735,-0.4089407944728242,-0.8192827150041152,-0.3384204914175683
1961796875,-0.1542664326041936,-0.0377221201509237,0.2569540691405534,-0.0787607133388519,0.0827054157853126,0.0898902937769889,-21.19483184814453,-49.4788818359375,-21.4630126953125,-0.2165413800911892,-0.4088972437597918,-0.8196434657757337,-0.3377830351497133
1971870849,-0.1776284573607146,0.1453887141436338,0.3004220394670963,-0.1539436131715774,0.0814864933490753,0.0405621603131294,-21.194747924804688,-49.4531478881836,-21.38134765625,-0.2160451243889367,-0.4085206313610133,-0.8201546197473789,-0.3373153887331391
1981945068,-0.1958780344743281,0.3965016560405492,0.0926747765660285,-0.1845240294933319,0.0582774579524993,0.0109247975051403,-21.1683349609375,-49.47759246826172,-21.77093505859375,-0.2154093800226545,-0.4079626490944368,-0.8207014861764264,-0.3370671420397542
1992018798,0.0821894767783582,0.0943757352650165,0.003651508244872,-0.1853908747434616,0.0207401998341083,0.0158143620938062,-21.52100372314453,-49.463661193847656,-22.10638427734375,-0.21481372619696,-0.4073218149836553,-0.821249560613362,-0.3368872709454739
2002093017,0.3094537794455885,-0.262898656758666,-0.1692950749099254,-0.16484996676445,-0.0325503163039684,0.0860065892338752,-21.402976989746094,-49.26896667480469,-21.82757568359375,-0.2145238706895378,-0.4066007647619579,-0.8217644721283874,-0.3366874530955346
2012166748,0.5200656379975378,-0.579276390248537,-0.2603717686295509,-0.1413512974977493,-0.0954621657729148,0.1814026087522506,-21.30480194091797,-49.162933349609375,-22.1588134765625,-0.2146886697807422,-0.4057778257885961,-0.8223379838275978,-0.3361746395071308
2022241210,0.3741111797299236,-0.6201654499977827,-0.2383633504390716,-0.0973686799407005,-0.1443116813898086,0.1902518719434738,-21.319190979003903,-49.25609588623047,-22.0142822265625,-0.2152874239511885,-0.4049137115119225,-0.8228437529943841,-0.3355956087817078
2032314941,-0.0302689546007663,-0.0690209292560815,-0.2958949174314737,-0.0266098268330097,-0.1359237879514694,0.169069617986679,-21.283226013183597,-49.05299377441406,-21.86981201171875,-0.2160664364701373,-0.4042577142729754,-0.8231791993278906,-0.3350628136359325
2042388916,-0.0359390361264348,0.1867600044518709,-0.2027934398859739,0.061070691794157,-0.0854343175888061,0.1668428629636764,-21.624122619628903,-48.92668151855469,-21.93011474609375,-0.2168093725516443,-0.4040092207106531,-0.8233775260050928,-0.3343943847329599
2052462890,0.0042259471319615,0.103634561997652,-0.1803185732275247,0.1486572623252868,-0.030301559716463,0.165436178445816,-21.64350891113281,-49.02764129638672,-21.84930419921875,-0.2174881105280532,-0.4042184224680564,-0.8234376309322291,-0.333552140631862
2062537597,-0.0112016313634812,-0.0352361485540866,-0.2379115150183439,0.1894587129354477,0.0093560023233294,0.1365692466497421,-21.555343627929688,-48.96619415283203,-21.97113037109375,-0.2180346307498216,-0.4048001699817646,-0.8233993398343317,-0.3325826462865641
2072611572,-0.0256174024678766,-0.0892097308039665,-0.3327121976971626,0.1700911372900009,0.0131281036883592,0.1059650033712387,-21.6759033203125,-48.98248291015625,-22.16949462890625,-0.2184373403746804,-0.4055109782194899,-0.8233185081879175,-0.331651326574659
2082685546,0.082013024232909,-0.0488280360549688,-0.4135831392228603,0.1093195155262947,0.0233351103961467,0.0781104117631912,-21.85040283203125,-49.28133392333984,-22.39654541015625,-0.2187828206735658,-0.4060341378254717,-0.823191130905178,-0.3310991711154502
2092759521,0.1972523915674537,-0.0198299051076173,-0.3238812409877777,0.0617807582020759,0.0369899347424507,0.0653370916843414,-21.98175811767578,-49.18461608886719,-22.11370849609375,-0.2188300498576938,-0.4064175209929375,-0.8232588814706882,-0.3304285748533754
2102833496,0.223429035353288,-0.0797141727060079,-0.1840519145369529,0.0505951084196567,0.0522922538220882,0.0661794543266296,-22.05024719238281,-49.10079956054688,-21.8798828125,-0.2187632753601919,-0.4067025786388356,-0.8233834911807923,-0.329811149167555
2112907714,0.2237602400690317,-0.130302204170823,-0.0439876102864742,0.062484260648489,0.0546739213168621,0.0803514719009399,-22.088951110839844,-48.966339111328125,-21.700927734375,-0.2186809154980265,-0.4069997515464683,-0.823527186787629,-0.3291395352910251
2122981445,0.1994114692974835,-0.0075754036903381,0.0722556733936071,0.0894465371966362,0.0520666986703872,0.096091091632843,-22.144271850585938,-48.83892059326172,-21.9664306640625,-0.2186337395494414,-0.4073733754655015,-0.8236777341670142,-0.3283308874820986
2133055664,0.1059952997796237,0.158747377410531,0.1452063433140516,0.1382718682289123,0.0586060918867588,0.1066665053367614,-22.17230987548828,-48.912628173828125,-22.05413818359375,-0.2186723117140805,-0.407890603157605,-0.8237762111798007,-0.3274145886390234
2143129394,0.0079539546791464,0.1615975061446428,0.2209925289213657,0.1988238096237182,0.0789121910929679,0.1048288792371749,-22.04206085205078,-48.80326843261719,-22.06787109375,-0.2187567648089857,-0.40865385934191,-0.8237785207236269,-0.3263993214592354
2153203613,0.0030957740582525,0.1083592524319887,0.2613420749664306,0.2328488826751709,0.078907661139965,0.0995225310325622,-22.14434051513672,-48.85118103027344,-21.94586181640625,-0.2188667587178387,-0.4096518893938414,-0.823681851270789,-0.3253167426800294
2163277343,-0.0678602879788726,0.1426227565616369,0.2718056013137102,0.2179819047451019,0.0455581322312355,0.107783704996109,-22.184349060058597,-49.023681640625,-22.57537841796875,-0.2190195965203202,-0.4106777420039768,-0.8235834621984844,-0.3241672204628527
2173351562,-0.0696487788308411,0.0859796628415584,0.2091127060353755,0.1650380045175552,-0.0328256227076053,0.1148996725678443,-22.27436065673828,-49.19747161865234,-21.62298583984375,-0.2194188947252744,-0.4114295924631472,-0.8234498775917504,-0.3232820591958631
2183425781,0.0531315054025501,-0.0391600439995527,0.0622515812516212,0.1056370288133621,-0.1381353735923767,0.1263309866189956,-22.17465209960937,-49.23817443847656,-21.55633544921875,-0.2201491838374789,-0.4117666607781151,-0.8233416598348422,-0.3226316504088402
2193499511,0.1945957395788282,-0.1077694698452949,-0.1604699634194374,0.0696454718708992,-0.2471987456083297,0.1193303316831588,-22.44182586669922,-49.295692443847656,-21.4996337890625,-0.2212513517364243,-0.4117170436216698,-0.8232279611085805,-0.3222307638437366
2203573730,0.207662799488008,-0.1733200926423072,-0.4339531425565481,0.0825313180685043,-0.2862171232700348,0.1007796600461006,-22.479286193847656,-49.40499114990234,-21.55706787109375,-0.2227233151126711,-0.4114572948049299,-0.8229508686827812,-0.3222564008657675
2213647460,0.1223779870428144,-0.1957873605161905,-0.4898042091161012,0.1389703601598739,-0.2350945621728897,0.0713091194629669,-22.633209228515625,-49.48103332519531,-21.31304931640625,-0.224172143503604,-0.4113866386224686,-0.8225645775435657,-0.3223279672422721
2223721679,-0.0012330489262938,-0.077162734657526,-0.2727788302600383,0.2201043963432312,-0.1304901987314224,0.0479951240122318,-22.87167358398437,-49.373077392578125,-21.3336181640625,-0.2253507540450584,-0.4117686276584318,-0.8220762295545149,-0.3222645284411744
2233795410,-0.079167644739151,0.0518114357799291,-0.0421416901588439,0.286957174539566,-0.0184757858514785,0.0463689975440502,-22.745216369628903,-49.54871368408203,-21.32122802734375,-0.2261582628047226,-0.4126562054045838,-0.8215369348855861,-0.3219383352618693
2243869628,-0.1021525067463517,0.1216992109984159,0.056483519244194,0.318272978067398,0.0373977646231651,0.0598545856773853,-22.872596740722656,-49.277931213378906,-21.47247314453125,-0.2267082742208604,-0.4138770198351085,-0.8210055367560426,-0.3213396376413931
2253943603,-0.1475927269939333,0.1718757390528917,0.092569562625885,0.3177469968795776,0.060176845639944,0.0658224672079086,-22.87603759765625,-49.553001403808594,-21.01898193359375,-0.2271482278926645,-0.4152082804509293,-0.8204997832785228,-0.3206025065919261
2264017578,-0.2162765332501381,0.227222947743535,0.091799162775278,0.2924986779689789,0.0631554871797561,0.0662016570568084,-22.916770935058597,-49.81092071533203,-21.10882568359375,-0.227517665090412,-0.4165029235316065,-0.820037556738227,-0.3198430973518332
2274091552,-0.2051660873014479,0.2197439901649951,0.0778641609251499,0.2394090890884399,0.0553284548223018,0.0735767483711242,-22.933448791503903,-49.822547912597656,-20.77471923828125,-0.2278397302847476,-0.417627084152677,-0.8196550958813509,-0.3191273389435501
2284165527,-0.0805796304289251,0.1135199961960315,0.0925835911512374,0.1630417257547378,0.0380039997398853,0.0739687606692314,-22.86219024658203,-49.77757263183594,-20.5860595703125,-0.2281222673519945,-0.4184460419562117,-0.8194064428897241,-0.3184905826975641
2294239257,-0.0677246789004653,0.0310188231199979,0.038827451044321,0.10103240609169,0.0352090112864971,0.0597698464989662,-22.88420867919922,-49.82687377929688,-20.37554931640625,-0.2283244780040717,-0.4189575372570093,-0.8192816667942384,-0.3179938681772789
2304313476,0.0263871447313576,-0.0538274517774581,-0.063753217986226,0.0814603865146637,0.0541952662169933,0.0581695847213268,-22.810317993164062,-49.80024719238281,-20.37969970703125,-0.2283933928319209,-0.4193343925076735,-0.819236142456405,-0.3175644931687503
2314387695,0.143807728562504,-0.1207569617122411,-0.1293804131507873,0.1049931347370147,0.0868903547525405,0.0747810453176498,-22.94628143310547,-49.884056091308594,-20.120361328125,-0.2283876692785853,-0.4197427537730143,-0.8192293941730179,-0.3170461906732678
2324462402,0.1315816495221108,-0.0985708488672971,-0.1383142457127571,0.1639124006032943,0.1178700849413871,0.0959049314260482,-23.10602569580078,-50.12903594970703,-20.283203125,-0.2283538803428565,-0.4203668713825249,-0.8191980427965043,-0.3163238864970464
2334536621,0.0958665583446621,-0.1274006375104188,-0.1613064142435789,0.2334158420562744,0.1446537524461746,0.0749799385666847,-23.00089263916016,-49.84261322021485,-20.08355712890625,-0.2283107124462287,-0.4213026897058054,-0.8190630660723214,-0.3154583281675148
2344610595,0.0300472746741026,-0.1636474244117736,-0.2180383552908897,0.2751086950302124,0.1335597485303878,0.0157135389745235,-23.16796112060547,-49.88072967529297,-19.998046875,-0.2282237123688101,-0.4225443532010486,-0.8187537944505842,-0.3146625241712851
2354684570,-0.075488444769755,-0.0682201342672109,-0.2566255678385496,0.2483511418104171,0.064871497452259,-0.0041533755138516,-22.94966125488281,-49.744407653808594,-20.53448486328125,-0.2281309648611544,-0.4238551600526778,-0.8183667781047825,-0.3139729103089977
2364758544,-0.0501093080371618,0.0773468590527772,-0.1771966418147087,0.1859799176454544,0.0274314451962709,9.22353938221e-05,-22.973716735839844,-50.05888366699219,-20.0093994140625,-0.2283005988793373,-0.4248174487451758,-0.8179537915548432,-0.3136250718959352
2374832519,0.0098548929296433,0.1509615458399057,0.1796639087110757,0.1321465075016021,0.0445401221513748,-0.0350103564560413,-22.915679931640625,-49.7900619506836,-20.09521484375,-0.2283725553698425,-0.4255429089253574,-0.817629112341704,-0.3134358003943979
2384906250,-0.0175713125258684,0.2219365317732095,0.4706751457542181,0.0720787346363067,0.0527999028563499,-0.0641368851065635,-22.86952209472656,-49.83872222900391,-19.94097900390625,-0.2281031349347116,-0.4261731155095358,-0.8174672694110813,-0.3131974486297104
2394980468,0.1103728572767227,0.2782932097673416,0.4033610204160213,0.0074917543679475,0.0081416210159659,-0.068616583943367,-23.130859375,-49.79782104492188,-19.95703125,-0.227891375420778,-0.4264639283239453,-0.8173145594858967,-0.3133545368006807
2405054687,0.2249357866544276,0.0721557201504707,0.0810977360188961,-0.064892753958702,-0.0409977845847606,-0.0738003998994827,-23.135162353515625,-50.41162109375,-20.12939453125,-0.22776363826677,-0.4263946029030793,-0.8172455419593264,-0.3137213824585528
2415128662,0.3704988344516605,-0.3049316258460283,-0.1553238327026367,-0.1329245418310165,-0.0875021666288375,-0.068182997405529,-23.00581359863281,-50.18639373779297,-19.97906494140625,-0.2277037678735335,-0.4259698063709546,-0.8172702718472471,-0.3142770022968622
2425202636,0.6460161497648805,-0.6693190647453069,-0.24038053548038,-0.1622024774551391,-0.1516720056533813,-0.060042917728424,-23.051536560058597,-50.16399383544922,-19.838134765625,-0.2278280348734521,-0.4252258150708411,-0.8173581221526978,-0.3149651118403135
2435276611,0.5639760913945734,-0.5721230113625526,-0.2828764459043741,-0.1423965543508529,-0.1923949271440506,-0.0666680634021759,-23.183349609375,-49.93489837646485,-19.72113037109375,-0.2281556861746848,-0.4243854235177275,-0.8173910860638982,-0.3157748337400359
2445350585,0.380310472761467,-0.1484784968525171,-0.2060691005557775,-0.1119361072778701,-0.2296528369188308,-0.0776905119419097,-23.205406188964844,-50.36100769042969,-19.8985595703125,-0.2286748572586035,-0.4236082680940317,-0.8173037093746043,-0.3166676625861341
2455424316,0.2655479291584343,-0.0323544556379318,-0.1490425604760646,-0.1132599636912345,-0.281033456325531,-0.0904539749026298,-23.069732666015625,-50.47496795654297,-19.98577880859375,-0.2293548328976329,-0.4228518550928072,-0.8171102298963256,-0.3176845134268545
2465498535,0.2733580183874815,-0.21363632093966,-0.1735258443474769,-0.1329262256622314,-0.319050669670105,-0.0868608504533767,-23.277793884277344,-50.41065216064453,-20.36370849609375,-0.2302324228158443,-0.4219556029019193,-0.8168757147949837,-0.3188424279541776
2475572509,0.1844094958029687,-0.3595598726123571,-0.1072819785892963,-0.125746876001358,-0.2622510492801666,-0.100564144551754,-23.339805603027344,-50.28106689453125,-20.23968505859375,-0.2310367796035341,-0.4210476028580505,-0.8166633118946243,-0.3200032048962611
2485646728,0.0191029060073196,-0.2420569442600011,-0.0583744475573301,-0.1070135906338691,-0.1758200079202652,-0.1175024062395095,-23.05610656738281,-49.933837890625,-20.10638427734375,-0.2315151167543654,-0.4203417811231175,-0.8164787717681404,-0.3210544888991495
2495720458,-0.0581747602667659,-0.0126180740326642,-0.0769312639892101,-0.0946288257837295,-0.1094918474555015,-0.1304245889186859,-22.971450805664062,-50.14966583251953,-20.2003173828125,-0.2316711589767391,-0.419847265828473,-0.8163224871872259,-0.3219848399593367
2505794433,-0.0924634719029069,0.1074707791596651,-0.1611895098656416,-0.0799583792686462,-0.0727891847491264,-0.1419493108987808,-23.06719207763672,-50.1541748046875,-20.4078369140625,-0.2316020276544071,-0.4195043309670331,-0.816181429503831,-0.3228384150279895
2515868652,-0.018155834415555,0.1436824947476387,-0.3830085527390241,-0.0716120302677154,-0.0789224430918693,-0.151026964187622,-22.75756072998047,-50.21272277832031,-20.37939453125,-0.2314687077317051,-0.4192539338707557,-0.8160118178524539,-0.3236865806776179
2525942382,-0.0085937138874083,0.0808984140545129,-0.6290671338558197,-0.0685377791523933,-0.1051095426082611,-0.1567160338163375,-22.8023681640625,-50.28482055664063,-20.40313720703125,-0.2314032327808894,-0.4189930404685643,-0.8158038318611498,-0.3245943507512114
2536016601,-0.012291180165857,-0.0052215340405702,-0.6575584843248129,-0.0735021755099296,-0.1009872332215309,-0.1529756188392639,-22.78189849853516,-50.434967041015625,-20.24664306640625,-0.2313911618409244,-0.4187119215509587,-0.8155774698455199,-0.3255330217282005
2546090576,-0.1111302515152841,-0.0124503162503242,-0.5189180753976106,-0.080442227423191,-0.0598514266312122,-0.1397915929555893,-22.851905822753903,-50.344268798828125,-20.5029296875,-0.231294466774793,-0.4184326593952812,-0.8154004357085839,-0.3264033462408612
2556164794,-0.2756274976894259,0.0067880527049303,-0.3186041773676872,-0.0591174960136413,0.0085164457559585,-0.1292052567005157,-22.732810974121094,-50.08607482910156,-20.4053955078125,-0.230999345490446,-0.4182522909915361,-0.8152964530428332,-0.3271025422106837
2566238525,-0.3368066274039447,0.0749018039882183,-0.1560311041891574,-0.0053685861639678,0.0705555155873298,-0.1178614422678947,-22.83153533935547,-50.18385314941406,-20.08660888671875,-0.2305137362946002,-0.4183246012281495,-0.8152116268351204,-0.3275638155956436
2576312500,-0.2633683931622654,0.139388596946001,-0.1031710361391305,0.052366878837347,0.0989852994680404,-0.1134568378329277,-22.676910400390625,-50.51429748535156,-20.40032958984375,-0.2299488080433465,-0.4186969056533201,-0.8150723773988412,-0.3278313514295887
2586386474,-0.201165984814614,0.1034358245551586,-0.1975520321011543,0.1049509048461914,0.0987123623490333,-0.0830750092864036,-22.736373901367188,-50.4702377319336,-20.23748779296875,-0.229464272449622,-0.4192969251954305,-0.8148549059350283,-0.3279446248997039
2596461425,-0.118722898601368,0.0069540569216012,-0.2578372817158699,0.1656520664691925,0.1232845485210418,-0.0440929904580116,-22.59613800048828,-50.512840270996094,-20.33349609375,-0.2291028302498633,-0.4201022258987226,-0.814593251678217,-0.3278169642320885
2606535644,-0.0303746799975633,-0.0846136351853609,-0.1844277621120214,0.2327419519424438,0.1618887335062027,-0.0229916218668222,-22.35718536376953,-50.499732971191406,-20.4306640625,-0.2287721879561985,-0.4211928761917284,-0.8142883236614475,-0.3274054124169813
2616609375,-0.0891010097324848,-0.0874871447950601,-0.1493441737711429,0.2939118444919586,0.1895155757665634,-0.0339856818318367,-22.41688537597656,-50.88578796386719,-20.18988037109375,-0.2284200291868936,-0.4226001848911196,-0.8138866892526816,-0.326835904085767
2626683593,-0.1550263110607862,-0.0781891550958156,-0.2761836702674627,0.3175026476383209,0.166723370552063,-0.0471161119639873,-22.406280517578125,-50.58699035644531,-20.30596923828125,-0.2280985435582364,-0.4242117543881138,-0.8133708001712112,-0.3262568470026384
2636757568,-0.1684879232455045,-0.1174485678166151,-0.3741454473257065,0.2827678620815277,0.1230307444930076,-0.0453272685408592,-22.51923370361328,-50.686485290527344,-20.21759033203125,-0.227905529978478,-0.425739502407726,-0.8128108579377012,-0.3257967892361397
2646831787,-0.1721253298997879,-0.1539811859220266,-0.209037302711606,0.2348753213882446,0.1044429913163185,-0.0338571853935718,-22.212852478027344,-50.58447265625,-20.37884521484375,-0.2277906659101138,-0.4270320717918469,-0.8123146718577565,-0.3254226960800556
2656905517,-0.1952932203236967,-0.1145592761158943,-0.0379535908192396,0.1965593695640564,0.1155092194676399,-0.025608841329813,-22.420379638671875,-50.65419769287109,-20.14447021484375,-0.2276387132447659,-0.4281272084053484,-0.8119276946079171,-0.3250554639513811
2666979492,-0.2165599533013999,-0.0204682030111551,0.1184615442514419,0.1813976615667343,0.1456254869699478,-0.0118574695661664,-22.600845336914062,-50.82435607910156,-19.98187255859375,-0.2273631431627747,-0.4291341304460624,-0.8116415074478576,-0.3246352284431029
2677053466,-0.1841363779500126,0.0869365251749754,0.1710766976296901,0.1819223016500473,0.1616103053092956,0.0128875579684972,-22.325050354003903,-50.88741302490234,-20.0457763671875,-0.2270291063203571,-0.4301222087377414,-0.8114287501494138,-0.3240926503288722
2687127441,-0.1795847059950232,0.1428846223682165,0.0856254425764083,0.1990264505147934,0.1791174411773681,0.0247195456176996,-22.310043334960938,-50.66535949707031,-19.995849609375,-0.2266830162422296,-0.4311553764783388,-0.8112428985525345,-0.323426652369661
2697201416,-0.1599823260329663,0.1022258642435073,-0.0642372021108865,0.2179471403360366,0.2003641426563263,0.0406034365296363,-22.35059356689453,-50.67528533935547,-19.5660400390625,-0.2263232261454177,-0.4322763752413431,-0.8110579541744914,-0.3226453853008356
2707275634,-0.0502395102880895,0.0148094465970993,-0.1785474719017744,0.2366874516010284,0.2249983251094818,0.0530402064323425,-22.711105346679688,-50.68904113769531,-19.04083251953125,-0.2259263517530058,-0.4334963321341342,-0.8108775830478102,-0.3217387604350476
2717349609,-0.010731602698937,-0.0683452219516038,-0.1592576650202274,0.2539620399475097,0.2523258328437805,0.0642412006855011,-22.392974853515625,-50.73236083984375,-18.923095703125,-0.2254752422696719,-0.4348211364776959,-0.81070376562065,-0.3207039767791542
2727423583,-0.0050206777062267,-0.1048632270097732,-0.074335402277112,0.2747137248516083,0.2698716223239898,0.0643492937088012,-22.22079467773437,-50.97637939453125,-19.17095947265625,-0.2249726513565578,-0.4362501723174249,-0.8105239738702045,-0.3195682852999078
2737497558,0.0182702545754611,0.0026163199782371,-0.0440063149869442,0.2906966805458069,0.2536108791828155,0.0532228723168373,-22.049224853515625,-51.21862030029297,-19.47283935546875,-0.224482775983783,-0.4377618487717021,-0.8102956656643088,-0.3184227261334893
2747571533,0.0045670887198299,0.1264227323889732,0.0073567925035953,0.2917284369468689,0.2083341777324676,0.0353551432490348,-22.19074249267578,-51.0611572265625,-18.866455078125,-0.224092135968185,-0.4392730300850966,-0.8099880112722164,-0.3173976721093163
2757645507,0.0039554596275091,0.1652835011810064,0.0535457122266292,0.2784003615379333,0.1204951480031013,0.0401600189507007,-22.23150634765625,-51.054107666015625,-18.6458740234375,-0.2239683999467144,-0.4406567733316289,-0.8095965932430061,-0.3165647336276149
2767719482,0.090247184092924,0.139534142896533,0.0154909991204738,0.2616099417209625,0.0349535569548606,0.0582347996532917,-22.16851806640625,-50.850074768066406,-18.1412353515625,-0.2240898620063258,-0.4418859072080646,-0.8092274069800095,-0.3157079507118655
2777793701,0.0926137670937925,-0.0127805711179971,-0.0285685073584318,0.2348313331604004,-0.0337152555584907,0.0736092329025268,-22.127197265625,-51.19017028808594,-18.3900146484375,-0.2246351593970865,-0.4428290664197592,-0.8087771781592578,-0.3151521234182167
2787867431,0.0339770153384655,-0.1259837564498186,-0.0416290644615888,0.1992925554513931,-0.0971763804554939,0.0790475755929946,-22.05067443847656,-51.252349853515625,-18.184814453125,-0.2254269196850015,-0.4435226622052023,-0.8083366144355081,-0.3147414096514416
2797941650,-0.0326570187810808,-0.196633163690567,-0.2359814237385988,0.1895017176866531,-0.1145015731453895,0.0764094516634941,-22.310775756835938,-51.16188049316406,-18.03887939453125,-0.2263529268412467,-0.4440468169206348,-0.807904098433128,-0.3144485251305887
2808015380,-0.082559552199766,-0.205917124864459,-0.3640034080177545,0.1983154714107513,-0.0669410452246666,0.0504858791828155,-22.25790405273437,-51.449249267578125,-18.20025634765625,-0.2271858948433481,-0.4446051989622614,-0.8074711303809059,-0.3141704146323597
2818089599,-0.1925112614549696,-0.1891875238597393,-0.3195721456170082,0.221108928322792,0.0220138635486364,0.0324546806514263,-22.35531616210937,-51.29451751708984,-18.09710693359375,-0.2276940875497436,-0.4453747201477117,-0.8070375464975468,-0.3138267882985046
2828164550,-0.2118603973083198,-0.1339326696276664,-0.2850222257614135,0.2603078484535217,0.075758196413517,0.0393668040633201,-22.179718017578125,-51.2452392578125,-17.534423828125,-0.2279403111349961,-0.4463962941505757,-0.8066118438097796,-0.3132903737472438
2838238525,-0.1127424359522759,-0.0789987179130315,-0.3581397766813635,0.2865027189254761,0.0793428122997284,0.0552304573357105,-22.14342498779297,-51.23989868164063,-17.7735595703125,-0.2281522199740635,-0.4475822302120478,-0.8061602992515575,-0.3126054211455472
2848312500,0.0142797236345708,-0.0394102193683385,-0.326092487296462,0.3009937703609466,0.0722923800349235,0.0666571632027626,-22.451942443847656,-51.59097290039063,-17.69403076171875,-0.2284413354396293,-0.4488293497020244,-0.8056800143643755,-0.3118439042484224
2858386474,0.0914403394002467,-0.0009048398852348,-0.2407318331360816,0.3170180022716522,0.0354773700237274,0.067808985710144,-22.25629425048828,-51.6865234375,-17.61187744140625,-0.2288514799637276,-0.4500936834529524,-0.8051519985986917,-0.3110836019676744
2868460693,0.1487472307913005,0.0150064304739236,-0.1821563100486993,0.327008455991745,-0.0217671431601047,0.062989205121994,-22.654541015625,-51.6903076171875,-17.34869384765625,-0.2294756578750969,-0.4513382835300581,-0.8045291265378004,-0.3104314019510191
2878534423,0.1952349142652004,-0.0333598332881927,-0.0784136115014553,0.3430508077144623,-0.0785417407751083,0.0457612089812755,-22.49476623535156,-51.4970703125,-17.30352783203125,-0.2303320382013732,-0.4525460877452499,-0.8037978789703916,-0.3099326599066872
2888608642,0.1998969147268682,-0.060524903589487,0.0101022918194532,0.3491856753826141,-0.1118190363049507,0.0274519324302673,-22.697067260742188,-51.68510437011719,-17.01544189453125,-0.2313483811654853,-0.453758002099192,-0.8029516541443641,-0.3095969002288251
2898682617,0.1885333707999437,0.0163303725540637,0.1215960428848862,0.3475464880466461,-0.1332598775625229,0.0230004582554101,-22.61190795898437,-51.59505462646485,-17.212646484375,-0.2324491698041225,-0.4549417550917088,-0.802051676174041,-0.3093677828846033
2908756591,0.1176514699775725,0.2128752734392881,0.2200339130222797,0.3144366145133972,-0.1252004653215408,0.0165472421795129,-22.26205444335937,-51.75624084472656,-16.5234375,-0.2335467390479595,-0.4560566077920466,-0.8011654729281068,-0.309196109397119
2918830566,0.0072236676432192,0.3017880671232938,0.3425032316103577,0.2605906724929809,-0.0724965184926986,0.0100770927965641,-22.306182861328125,-51.61505126953125,-16.39630126953125,-0.2344322508728175,-0.4570445901332536,-0.8004043564337591,-0.3090380495415876
2928904296,-0.0512857314053922,0.2527513567537069,0.4111000902354717,0.2134956419467926,-0.0060589923523366,-0.0120161026716232,-22.465187072753903,-51.673126220703125,-16.31671142578125,-0.2349430465988568,-0.4579380824867867,-0.7998184955759461,-0.3088441537462815
2938978759,-0.006493015281111,0.1157733280807733,0.2561103117927908,0.1724001467227935,0.0146697219461202,-0.0397079177200794,-22.38168334960937,-51.74373626708984,-16.82000732421875,-0.2351586577904275,-0.458757712985114,-0.7993354402694501,-0.3087143286414557
2949052490,0.1501031023796647,-0.0802513483226299,-0.0262979320779442,0.1503865420818328,0.0002614898839965,-0.0428303889930248,-22.577194213867188,-52.27278137207031,-16.43212890625,-0.2352798555779384,-0.4594623702664108,-0.7989051456760674,-0.3086879626513034
2959126708,0.2415193302519619,-0.1713736347496509,-0.133138888901472,0.1409608125686645,0.0165278110653162,-0.0535839684307575,-22.630577087402344,-51.91902923583984,-16.35650634765625,-0.2353745455899902,-0.4601025309830344,-0.7985041097740286,-0.3086999554299202
2969200439,0.1804936375334858,-0.1379705468416213,-0.040000586476922,0.1576955914497375,0.0756046846508979,-0.0675285905599594,-22.26966094970703,-51.57054901123047,-15.87799072265625,-0.2352891757112544,-0.4608385250399553,-0.7981165872802772,-0.3086694319576536
2979274658,0.1351835464715957,-0.0622422289013862,0.0358133639201521,0.1845176070928573,0.1300564706325531,-0.0735438764095306,-22.29106903076172,-51.60919952392578,-15.67266845703125,-0.2348592843622718,-0.4618211965671693,-0.7978112139100435,-0.3083171066348696
2989348388,0.178239574996382,0.0277589445412158,0.0988970120817422,0.2008119225502014,0.1518155187368393,-0.0748879164457321,-22.35533905029297,-51.81781768798828,-15.67596435546875,-0.2344186644921506,-0.462906328613026,-0.7974131390336274,-0.3080551053971374
2999422607,0.1613277492925524,0.0741501088380813,0.1332797586768865,0.2160406708717346,0.1469802856445312,-0.0757446587085723,-22.04888153076172,-51.84709167480469,-15.69384765625,-0.2339591903382069,-0.4640704131248497,-0.7969862228372173,-0.3077575469453741
3009496582,0.1102133558660745,0.071302902713418,0.1481245688483119,0.2270461171865463,0.1205038726329803,-0.0753062143921852,-22.03107452392578,-52.15943908691406,-15.63397216796875,-0.2335828989750333,-0.4652514054457212,-0.7965142586916244,-0.3074819317967618
3019570556,0.1414058550525456,0.0229541746079921,0.113259883955121,0.2444559931755066,0.086760826408863,-0.0750798434019088,-22.07653045654297,-52.17037963867188,-15.472900390625,-0.2333490407655054,-0.4664412696710662,-0.7959714539721441,-0.3072623262200786
3029644775,0.1476343741785734,-0.0129962596952915,0.0548269842088222,0.2610270082950592,0.0512038692831993,-0.0694065690040588,-22.12977600097656,-52.06465148925781,-15.37481689453125,-0.2332865956276895,-0.4676445306203555,-0.7953449225932014,-0.3071031645807537
3039719482,0.0737131787255406,-0.0485533107668161,0.0122112467974424,0.2481079995632171,0.0154032604768872,-0.0583813451230526,-22.186508178710938,-52.276893615722656,-15.0177001953125,-0.233398717498276,-0.4688008641743917,-0.7946769224408724,-0.3069844798657591
3049793701,0.0025577947240322,-0.1127864212244749,0.0387824428588151,0.20437952876091,-0.0020122728310525,-0.0487471036612987,-22.152557373046875,-52.37602996826172,-15.10931396484375,-0.2336021218655952,-0.4697842758156881,-0.794059729545601,-0.3069233832813208
3059870605,-0.0158768566329032,-0.098468557536602,0.1805114654511213,0.1331594288349151,-0.0063974345102906,-0.0394473448395729,-22.21397399902344,-52.3218994140625,-15.4979248046875,-0.2337726167380947,-0.4705097010421546,-0.793584876166627,-0.3069105176874729
3069944335,-0.0395056425668299,-0.053960138246417,0.2733551688432693,0.0744975283741951,0.0164279714226722,-0.0326837822794914,-22.12354278564453,-52.400978088378906,-15.29486083984375,-0.2338413424062723,-0.4709661856537024,-0.793284514198126,-0.3069345845250752
3080018554,-0.0543898349005728,-0.0165396313905715,0.3613675065562128,0.0505461320281028,0.0689537674188613,-0.0212407112121582,-22.231407165527344,-52.36899566650391,-15.330810546875,-0.2337015519038959,-0.4713013790326112,-0.7931496336261562,-0.3068749876697069
3090092773,-0.0531960220061242,0.0267424609750509,0.3904962781459092,0.0647556483745575,0.1087534949183464,-0.0182492565363645,-22.04332733154297,-52.34928894042969,-14.945068359375,-0.233372937400699,-0.4716853257094145,-0.7930949199109596,-0.3066766998435447
3100166503,-0.0478727080915123,0.0553057076364755,0.296289761967957,0.1007765009999275,0.1162755936384201,-0.0203739274293184,-22.200035095214844,-52.25159454345703,-14.88916015625,-0.2329927641000534,-0.4722091228977703,-0.7930063339977282,-0.3063882722073426
3110240722,-0.052517026766017,0.0803320123434066,0.1499260653123259,0.1484154760837555,0.1023187786340713,-0.0141488071531057,-22.24456024169922,-52.49714660644531,-14.9178466796875,-0.2327078292025019,-0.4728913814676843,-0.7928134107415566,-0.3060516726150878
3120314453,-0.0374320511631667,0.0771370156943798,0.1022238184168934,0.1888883262872696,0.0885670110583305,-0.0086480472236871,-22.080894470214844,-52.36985778808594,-14.9241943359375,-0.2325635357838259,-0.4737342902251902,-0.79250224721855,-0.3056635019594579
3130388671,-0.0336615927137434,0.0538467409998178,0.1334551152437925,0.1914164572954177,0.0618686154484748,-0.0033629070967435,-22.07364654541016,-52.3577880859375,-14.76580810546875,-0.232540107840103,-0.4746249659073196,-0.7921238993500186,-0.3052801599214265
3140462402,-0.0574633240617811,0.0392658424615859,0.1610243824318051,0.1708914786577224,0.0233643669635057,0.0085989469662308,-22.16815948486328,-52.14672088623047,-14.9697265625,-0.2326625735371935,-0.4754223524642669,-0.7917334341065254,-0.3049586548098836
3150536621,-0.0863390707384794,-0.0311468334138393,0.2175298212468624,0.1361922770738601,-0.0202918108552694,0.0271265283226966,-22.137527465820312,-52.253326416015625,-14.60296630859375,-0.2329341675656397,-0.4760141645726699,-0.7913956526521065,-0.304705154272917
3160610595,-0.0356666489258408,-0.0806435625106096,0.335277664270997,0.1068247929215431,-0.0508662313222885,0.0342214554548263,-21.94837951660156,-52.22857666015625,-14.503173828125,-0.2333349488240777,-0.4764036714145122,-0.7911126563370535,-0.3045246260836214
3170684570,-0.0521439556699246,-0.0260761060208082,0.3811491886079311,0.0833860784769058,-0.043902687728405,0.0261098556220531,-22.035911560058597,-52.17634582519531,-14.3111572265625,-0.2337443817319835,-0.4766709110709741,-0.7908759934310459,-0.3044070473140403
3180758544,-0.0974147376347333,0.0533317772150039,0.3751075703561305,0.0632139667868614,-0.0233508069068193,0.0128430519253015,-21.915298461914062,-52.24383544921875,-14.718994140625,-0.2340357459228557,-0.4768830100289744,-0.7906944130295823,-0.3043223977209148
3190832519,-0.1304337215960025,0.0726782827198505,0.3368167104065418,0.0545321702957153,0.0089112007990479,0.0018021054565906,-21.81172180175781,-52.14175415039063,-14.48681640625,-0.2340325533634056,-0.4771635836596468,-0.7906505168954204,-0.303999227169654
3200906738,-0.129393126501888,0.0212584766060113,0.2726724472761154,0.0533180348575115,0.0479957535862922,-0.0132609996944665,-21.583518981933597,-52.20777893066406,-14.7799072265625,-0.2339916110835869,-0.4774207704670196,-0.7905479021641318,-0.3038938748870117
3210980468,-0.1489436301462352,0.0300052621632814,0.2477589552938938,0.0472254790365695,0.0757841095328331,-0.0279309321194887,-21.839019775390625,-52.19244384765625,-14.4375,-0.2337758519551622,-0.4777380402298793,-0.7904678501209752,-0.303769411721126
3221054687,-0.1551189577803015,0.0257838450759649,0.1860711454048752,0.0462981648743152,0.086868979036808,-0.0243527088314294,-21.860008239746094,-52.21199035644531,-14.647705078125,-0.233448870850091,-0.4780834499011416,-0.790411299027541,-0.3036243544037186
3231128662,-0.0574891891553997,0.054224926662445,0.1548562151908874,0.0369934290647506,0.0767867937684059,-0.0168242342770099,-21.836898803710938,-52.23921203613281,-14.21075439453125,-0.2331347376321968,-0.478401029879525,-0.7903772900084314,-0.3034542406605228
3241202636,0.0192619690265506,0.0524462265521287,0.184855632135272,0.043463047593832,0.0638110786676406,0.0013257409445941,-21.88221740722656,-52.082618713378906,-14.505126953125,-0.2327213717732356,-0.4787498121344725,-0.7904647426502561,-0.3029930611122374
3251276611,0.0523366286978125,0.0185047939836978,0.2147054114758968,0.0527545846998691,0.042478259652853,0.0204429328441619,-21.6014404296875,-52.3934326171875,-14.36376953125,-0.2325957177880067,-0.4790141753453743,-0.7904306680586605,-0.3027606823363546
3261351562,0.1114703701898455,-0.0394581501632928,0.2268707733049988,0.0543692596256732,-0.0192399658262729,0.0393961146473884,-21.82417297363281,-52.161415100097656,-14.20074462890625,-0.2325540715699269,-0.4792787861866934,-0.7904495135291701,-0.302324225958154
3271425781,0.1968244484789669,-0.1454004045814275,0.0767196670651435,0.0543263256549835,-0.1100125834345817,0.0575656704604625,-21.839645385742188,-52.41816711425781,-14.0064697265625,-0.2330033188241581,-0.4793426083944018,-0.7903176601513366,-0.3022220597785091
3281499511,0.2147039501711726,-0.1620136857300996,-0.1076508119016885,0.0721173137426376,-0.1562232226133346,0.0479897446930408,-21.78697967529297,-52.37150573730469,-14.08123779296875,-0.2337692654917898,-0.4793207609337918,-0.7900882288167289,-0.3022649501608838
3291573486,0.1317436351507902,-0.0898164645254611,-0.0899158332467079,0.1006814464926719,-0.1534241288900375,0.0298463739454746,-21.73571014404297,-52.46385192871094,-14.128173828125,-0.2346193912342067,-0.4793787435690323,-0.7897532657084139,-0.302389827337203
3301647460,0.0761213358458131,-0.0004559270739555,0.0103740944981575,0.1094565615057945,-0.1391511857509613,0.022815627977252,-21.708908081054688,-52.46031188964844,-14.00726318359375,-0.2354243243174619,-0.4795393774382057,-0.789368570961313,-0.3025139025230756
3311721679,0.062675359621644,0.0246580559164285,0.0969721814990043,0.1012338921427726,-0.1176510006189346,0.0258272811770439,-21.64075469970703,-52.45602416992188,-14.0736083984375,-0.2361602179584031,-0.4797365825808917,-0.7889947171293188,-0.3026030118384097
3321795654,0.0005244622655212,0.012073884153366,0.1885766984850168,0.0669134706258773,-0.0860206335783004,0.0271082613617181,-21.818161010742188,-52.55663299560547,-14.08404541015625,-0.2367604957978551,-0.4798925253490687,-0.788706055835476,-0.3026392207157995
3331869628,-0.0395414445325732,0.0164478614538908,0.250485165387392,0.0325983837246894,-0.0497167222201824,0.0238202735781669,-21.98062896728516,-52.6529541015625,-13.84405517578125,-0.237156478431161,-0.4799535796986576,-0.7885477349753098,-0.3026447339202703
3341943603,-0.0106667207691818,-0.0015671031862497,0.2367196748852729,-0.0004743468016386,-0.0395322628319263,0.0317626185715198,-21.92206573486328,-52.58065032958984,-13.915283203125,-0.2374086411275131,-0.4799162809282078,-0.7885052231440219,-0.3026169831419405
3352017578,0.0427653019499033,-0.0453700045555829,0.1215370061740279,-0.015660298988223,-0.041448451578617,0.0452600196003913,-21.96393585205078,-52.761077880859375,-13.56243896484375,-0.237646761522745,-0.4797725294610527,-0.7885376927501063,-0.3025732289075464
3362091308,0.0804285315204411,-0.0589613075345754,0.0268213714301586,-0.0174768418073654,-0.0414633639156818,0.0570932477712631,-21.968521118164062,-52.69757080078125,-13.8212890625,-0.2379142991367553,-0.4795760292340671,-0.7886074796590012,-0.3024924985670209
3372165527,0.0222886233713477,-0.0460439582943916,-0.0217512285590171,-0.0182801876217126,-0.0278781652450561,0.0613957419991493,-22.00611114501953,-52.91021728515625,-13.981689453125,-0.238168356344421,-0.4793750976533128,-0.7886982886651743,-0.3023746650843419
3382239501,-0.0405390042025595,-0.0158422967761754,-0.071949968445301,-0.0178977586328983,-0.018856706097722,0.0487917996942997,-21.939491271972656,-52.689109802246094,-14.29248046875,-0.2383600103213074,-0.4792039777818928,-0.7887961091154163,-0.3022396024625444
3392313720,-0.0739172499302774,-0.0051046296626329,-0.1277525196880102,-0.003633378772065,-0.0084798336029052,0.0361029915511608,-22.16426086425781,-52.47716522216797,-13.654296875,-0.2385052139396068,-0.4790753285558461,-0.7888752735991607,-0.302122461052397
3402387695,-0.0596790273498743,-0.0604319646090269,-0.1259048459947109,0.0340522155165672,-0.0020158090628683,0.0239712260663509,-21.98314666748047,-52.43048095703125,-13.66876220703125,-0.2386160576154779,-0.4790890445276667,-0.7888823087501721,-0.3019948370959455
3412461669,-0.0277609903678297,-0.017336919248104,-0.1001180783092975,0.0864353254437446,-0.0030389216262847,0.022419748827815,-21.91924285888672,-52.6240463256836,-13.90814208984375,-0.2387745473227515,-0.4793019995200466,-0.7887657520608736,-0.3018358253754763
3422535644,-0.0295422477614134,0.1033802949756383,-0.0820855780124664,0.1144525781273841,-0.0151709513738751,0.017975466325879,-22.044754028320312,-52.340370178222656,-13.9468994140625,-0.2390132846544165,-0.4796723084127593,-0.7885366430887676,-0.3016570392657327
3432609375,-0.0779383221399039,0.1683715303242206,-0.0325531930804252,0.1029851138591766,-0.0089991344138979,0.0294243823736906,-22.14952850341797,-52.40991973876953,-13.7030029296875,-0.2392972463914394,-0.4800553019428735,-0.788290972502227,-0.3014650361783193
3442683593,-0.1004151615597307,0.0554851558566093,0.0796738406956195,0.0594948977231979,0.0129663515836,0.0394274815917015,-22.301544189453125,-52.46173858642578,-13.635986328125,-0.2395032456588476,-0.4803498848960851,-0.788139385731988,-0.3012283021762669
3452757568,-0.082103113669157,-0.0968494319021701,0.1366547880679368,-0.005155480466783,0.0437445342540741,0.0470806583762168,-22.45684051513672,-52.472145080566406,-13.9072265625,-0.2395339841272832,-0.4804473475288528,-0.7881736386689425,-0.3009587730100987
3462831787,-0.0730789724752307,-0.1364016900897026,0.1654807773187756,-0.0738149657845497,0.0503630228340625,0.0589239969849586,-22.55039978027344,-52.49794006347656,-13.77630615234375,-0.2394149928594151,-0.4802951259428398,-0.7884071953092476,-0.3006845135002587
3472905517,0.0263666864652186,-0.1293558632314205,0.1778276331946253,-0.1302832812070846,0.0441873595118522,0.0698162317276001,-22.29703521728516,-52.56163024902344,-13.516357421875,-0.2392241483364393,-0.4798776958854684,-0.7888162714987837,-0.3004298301619838
3482980712,0.0600767214305698,-0.0483341150581836,0.1604056660115718,-0.1619416028261184,0.032807670533657,0.0703917369246482,-22.53997802734375,-52.38243103027344,-13.9061279296875,-0.2390267416982934,-0.4792636190678498,-0.789325376937167,-0.3002299369580885
3493054687,0.0250025585051625,0.0812362677067518,0.0673936203151941,-0.1874160468578338,0.0291957892477512,0.0589403733611106,-22.52684783935547,-52.59565734863281,-13.90509033203125,-0.2387985563317039,-0.4785377554422803,-0.7898840971723287,-0.3000998188387128
3503128417,-0.0199883105397224,0.1574684435158967,0.0588444031566381,-0.2046845108270645,0.0250836014747619,0.0624275170266628,-22.356033325195312,-52.30064392089844,-14.142822265625,-0.2385360846719818,-0.4777203815870073,-0.7904856081144264,-0.3000271312067194
3513202636,0.001118409570679,0.1248649815529584,0.0115267716646194,-0.2110413163900375,0.0199413318186998,0.0773417130112648,-22.328399658203125,-52.58126831054688,-14.063232421875,-0.2382943828512202,-0.4768357574488845,-0.7911248270008183,-0.2999416557270357
3523276367,-0.0038732612367719,0.0074386255681514,-0.0719938075870275,-0.1834429800510406,0.0469854660332202,0.0812930390238761,-22.24259185791016,-52.07183837890625,-14.04180908203125,-0.2379440073377549,-0.4760512624730998,-0.7918358556736317,-0.2995897245322663
3533350585,-0.0937553383443504,-0.1781149257034063,-0.2025681066974997,-0.1293783336877823,0.078662484884262,0.0890673771500587,-22.283843994140625,-52.47455596923828,-14.41693115234375,-0.2376621641012764,-0.4754192485883309,-0.7924137768472022,-0.2992886162046209
3543424560,-0.0915090937875211,-0.2143073520690202,-0.3847068810895085,-0.0872519165277481,0.0746602863073349,0.0828638076782226,-22.33721923828125,-52.188568115234375,-14.231689453125,-0.2373884668099724,-0.4750117964265876,-0.7928945057571734,-0.2988791261711551
3553498779,-0.1385510501433163,-0.0250444248855113,-0.5935615207105874,-0.0705004632472992,0.037335030734539,0.0561228096485137,-22.33563232421875,-52.57970428466797,-14.73760986328125,-0.2372180824113335,-0.4747091764031523,-0.7932504077540617,-0.2985509843648695
3563572509,-0.2510135731756687,0.1776198356628417,-0.6330950741976499,-0.0555867590010166,0.0162387993186712,0.0051448447629809,-22.271484375,-52.23429870605469,-14.38519287109375,-0.2370930035251926,-0.4744517740685694,-0.7934845596341741,-0.2984370205096188
3573646484,-0.3435705685809254,0.2690776376545429,-0.5965092646002769,0.0032721878960728,0.0237076934427022,-0.0681477338075637,-22.26997375488281,-52.24317932128906,-14.404296875,-0.2369160815057644,-0.4743914276750079,-0.7935314972354688,-0.2985488930139264
3583720458,-0.4645208609081804,0.3317740400642156,-0.5928709080979228,0.1113331466913223,0.0717556476593017,-0.1707273721694946,-22.1727294921875,-52.233184814453125,-14.66412353515625,-0.2365340444361112,-0.4748205820882595,-0.7932800250581186,-0.2988375403064389
3593794433,-0.4976924050826579,0.3766033618718385,-0.4950771810829639,0.221021220088005,0.1208038404583931,-0.2850257456302643,-21.898757934570312,-52.41595458984375,-14.473876953125,-0.2358403468208612,-0.475907234835965,-0.7926557510594946,-0.2993134874707049
3603868652,-0.5173849475461989,0.4285732030838727,-0.5070119490265846,0.3113830685615539,0.0949099287390708,-0.3903138041496277,-21.800498962402344,-52.14736175537109,-14.581298828125,-0.2349732268358328,-0.4775497523684142,-0.7916366598472739,-0.3000753603916388
3613942626,-0.511882112346217,0.4492418971031904,-0.7548270184218883,0.3664545714855194,0.0312436390668153,-0.470850259065628,-22.006065368652344,-52.599098205566406,-14.37066650390625,-0.2341991312662379,-0.4795164041175642,-0.7902373312591658,-0.3012304275033987
3624016601,-0.2682912365172058,0.378583137512207,-0.8057052650049328,0.418569415807724,-0.040653720498085,-0.519163191318512,-21.65682983398437,-52.79991912841797,-14.00390625,-0.2336066448408366,-0.4816543118054583,-0.7885292403003523,-0.3027518512452177
3634090576,0.1859775488372892,0.3295587021023035,-0.6138520290672779,0.4814197123050689,-0.1177789717912674,-0.525327205657959,-21.339340209960938,-52.90935516357422,-13.63726806640625,-0.2333436527289379,-0.4839375826254996,-0.7865361878489061,-0.3044932700946423
3644164550,0.1766386426057666,0.2631406488209962,-0.3551052312910556,0.5034315586090088,-0.1732779145240783,-0.5136082172393799,-20.969261169433597,-52.58594512939453,-13.7496337890625,-0.2333149241353656,-0.4863248772161568,-0.7844259474784018,-0.3061505421770352
3654238525,-0.1192461918231099,0.1776888092458248,-0.1752536910533905,0.4907667636871338,-0.1545336991548538,-0.5142715573310852,-20.768600463867188,-53.07891082763672,-13.1859130859375,-0.2334851811529782,-0.4886307772556429,-0.782214132428382,-0.3080027655834618
3664312500,-0.1065588884791359,-0.0486778139293193,0.0588622310742735,0.4570692479610443,-0.0660243406891822,-0.53400719165802,-20.720367431640625,-53.276023864746094,-12.97259521484375,-0.2333739100706147,-0.4909381764194598,-0.7801001025436161,-0.3097742246485975
3674386474,-0.2191465357284993,-0.1956505823940038,0.1313993517577648,0.3827963769435882,-0.1230929642915725,-0.555103063583374,-20.51190948486328,-53.42466735839844,-13.234375,-0.232980899998408,-0.4931265873787456,-0.7781050443505624,-0.3116065974231917
3684460693,0.0048036374220624,-0.0515571687579154,-0.393189755013585,0.2658779919147491,-0.4851358532905578,-0.5284131169319153,-20.15953063964844,-53.12052154541016,-12.8453369140625,-0.2331383053795007,-0.4946490731518693,-0.7761864509025599,-0.3138527045371709
3694534423,0.282423112646304,-0.2466904492795467,-1.1059756210416554,0.1272992044687271,-0.764236330986023,-0.4447839856147766,-20.30210876464844,-53.436798095703125,-12.59503173828125,-0.2347298651723157,-0.4949868166429244,-0.7741584791031747,-0.3171257572522365
3704608642,0.0973047013889998,-0.6190075121343136,-0.6386164679676294,-0.032869167625904,-0.8586888313293457,-0.3411588072776794,-20.038406372070312,-53.72432708740234,-12.44232177734375,-0.237024549677553,-0.4943300888936509,-0.7724302143651453,-0.3206379091175274
3714682617,0.0060428603608161,-0.3839589853316545,0.0476934790670871,-0.2087463587522506,-0.8938188552856445,-0.2520683705806732,-19.74838256835937,-53.48101806640625,-12.66375732421875,-0.2395027699365396,-0.4927899468238183,-0.7711965007121767,-0.324118081971424
3724757568,-0.0462274981677532,0.0693774876087904,0.4161339927494525,-0.4485323429107666,-0.8296398520469666,-0.1887924671173095,-19.50806427001953,-53.47056579589844,-12.43048095703125,-0.2416306347613134,-0.4904745199526478,-0.7707009039016386,-0.3272146947068005
3734831542,-0.3134954195192083,0.2639683318167924,1.092971762561798,-0.8134808540344238,-0.7118567824363708,-0.1552193760871887,-19.86878204345703,-53.85145568847656,-12.517333984375,-0.2431616535452193,-0.4869897468925168,-0.7710056970316962,-0.3305505556464673
3744905517,-0.4490221899379044,0.3791325880885124,1.569895155055821,-1.257737636566162,-0.6231261491775513,-0.077927254140377,-19.745582580566406,-53.548828125,-12.7130126953125,-0.2437182720325795,-0.48201601824656,-0.7725055529998008,-0.333911741452656
3754979492,-0.3464192725429311,0.338213133201003,1.780772240415215,-1.7232362031936646,-0.6195038557052612,0.1215732768177986,-20.00780487060547,-53.488563537597656,-12.893798828125,-0.2436282718400212,-0.4751571395409182,-0.7753643909736757,-0.3371662285270067
3765053466,-0.2441368923392146,0.2451654316693544,1.92970315721035,-2.204380989074707,-0.7011555433273315,0.386970043182373,-20.097579956054688,-52.78312683105469,-13.10247802734375,-0.243280287559105,-0.466119078779023,-0.7797741567014196,-0.3398528236947493
3775127685,-0.1060544095557183,0.2271621574670076,1.901211222219467,-2.649928331375122,-0.8571572303771973,0.5943755507469177,-20.442169189453125,-52.53893280029297,-14.269287109375,-0.2431190563906914,-0.4546991221061411,-0.7854564567725104,-0.3423448102821371
3785201416,0.0125024848289787,0.0148152918159961,1.5758897192955017,-2.985470771789551,-1.2693856954574585,0.721520185470581,-20.967124938964844,-52.21895599365234,-15.5723876953125,-0.2437655894297966,-0.4408883385276119,-0.7917361140160059,-0.3454704065793552
3795275634,0.4177857054792344,-0.2888537667483091,0.4532511327445507,-3.096626281738281,-1.53937566280365,0.7370195984840393,-21.57190704345703,-51.503196716308594,-16.91839599609375,-0.2455546738556316,-0.4253487150806494,-0.7980963155909614,-0.3490325136613748
3805349609,0.1231150691457092,-0.5566816966027021,0.3720242173880338,-2.902784824371338,-1.4987688064575195,0.6877756118774414,-22.174156188964844,-50.59412384033203,-18.5059814453125,-0.247709486408504,-0.4096933508764379,-0.8039918088604522,-0.3526873781189319
3815423583,0.0868610487859696,-0.7370610601067542,0.5453045625418425,-2.4994800090789795,-1.1725444793701172,0.5510730147361755,-22.73394775390625,-50.49610137939453,-19.39239501953125,-0.2496176096577584,-0.395495728547111,-0.808915911346443,-0.3562712583099466
3825497558,0.3521319145686924,-0.7094909161359071,0.6659849518865346,-1.9464713335037231,-0.710956871509552,0.3407267034053802,-23.314491271972656,-49.624732971191406,-20.32073974609375,-0.2503622238717486,-0.3841017072809635,-0.8129013109377656,-0.3591324211603403
3835571289,0.5786128117732703,-0.8229249876141548,0.7458522693276405,-1.356717228889465,-0.1226139962673187,0.1079092696309089,-23.514694213867188,-49.07485961914063,-21.17449951171875,-0.2495106265177017,-0.3763064281262768,-0.8159406155616198,-0.3610801778351875
3845645751,0.6109110071793198,-0.6139174955189227,1.024382210460305,-0.83371901512146,0.2749517560005188,-0.1326117366552353,-23.512290954589844,-48.48526763916016,-22.0849609375,-0.2469082269577118,-0.3721163566001063,-0.8182445814730236,-0.3619968016224875
3855719482,0.5508605892337858,-0.1212023673921823,0.8196773839950561,-0.339601993560791,0.267451673746109,-0.233275830745697,-23.391082763671875,-48.493194580078125,-22.5887451171875,-0.2442839268498923,-0.3704823827598322,-0.8193399694621082,-0.3629740382693736
3865793701,0.6558746228910982,0.2619002933710813,-0.0123299047410488,0.0129959974437952,0.0571554265916347,-0.2346401661634445,-23.542022705078125,-48.43570709228516,-23.01708984375,-0.2428869126874413,-0.3704654185518268,-0.8193776548376057,-0.3638428734216153
3875867431,0.486100678423047,0.2086275528669357,-0.4361176271140575,0.194752037525177,-0.0077807083725929,-0.14594766497612,-23.419212341308597,-48.40223693847656,-22.3424072265625,-0.2425838641119537,-0.3712613752004713,-0.8189269185201717,-0.3642483071537268
3885941650,0.0509317303359508,-0.0584732317566871,0.2030395236015319,0.2673463523387909,0.0816117525100708,-0.004008893854916,-23.14508819580078,-48.18330383300781,-22.4866943359375,-0.2426384596907322,-0.3724734582015245,-0.8184935324472405,-0.3639484803519471
3896015380,-0.220759743078798,-0.3398340124011039,0.7285656189620494,0.2568990886211395,0.2761575877666473,0.1645839363336563,-23.229766845703125,-48.35562133789063,-22.28619384765625,-0.2424322325635022,-0.3738751459271507,-0.8184690611436627,-0.3627015640323804
3906089355,-0.3075594901315868,-0.4965127668440341,0.666415159997344,0.1676855981349945,0.4352716207504272,0.3483766615390777,-23.46430206298828,-48.484153747558594,-22.4378662109375,-0.2416924543669041,-0.3752223863958664,-0.8190847004926997,-0.3604071376165755
3916163818,-0.4243113078556955,-0.4234533758521079,0.6289958221852779,0.0449960194528102,0.5089375376701355,0.5717830657958984,-23.46123504638672,-48.54510498046875,-22.003173828125,-0.24065807492236,-0.3760801075274877,-0.8203842751054415,-0.3572354690311711
3926237548,0.3381023663029074,-0.6196200910747051,0.5678957490563392,-0.104323960840702,0.3989670574665069,0.8731405138969421,-23.525413513183597,-48.206390380859375,-21.9810791015625,-0.239924061955506,-0.3759640194792094,-0.8224137251143384,-0.3531618728920955
3936311767,0.697470369604975,-1.2535960397601127,-0.1738946776598691,-0.1030686348676681,0.2025064527988433,1.1140234470367432,-23.656394958496094,-48.425880432128906,-22.349365234375,-0.2402614579255337,-0.3748667520695686,-0.824863265697831,-0.3483529648694664
3946385498,-0.3062484075330197,-1.381201259931922,-0.6376233652770519,0.1082766354084014,0.0372328087687492,1.188616394996643,-24.27509307861328,-48.483917236328125,-22.51446533203125,-0.2419686677255746,-0.3736242655538765,-0.82703973578585,-0.3433092471949244
3956459472,-0.6649111851751804,-0.8756079455316066,-1.0001631304830312,0.4585110247135162,-0.0096775749698281,1.044566631317139,-24.945724487304688,-48.38848114013672,-22.67315673828125,-0.244561077907055,-0.373394100484264,-0.8284808218834628,-0.3382102712773334
3966533447,-0.4067953787788748,-0.4799579378843307,-1.2467220623373985,0.8388128280639648,0.0835333317518234,0.6488244533538818,-25.35125732421875,-47.85411071777344,-22.5263671875,-0.2471446953615628,-0.3751186675304621,-0.8287180618783305,-0.3338141000767215
3976607421,-0.1315222474850714,-0.2364899577826261,-1.078877770757675,1.134114384651184,0.0410692691802978,0.3802253007888794,-25.637680053710938,-48.24843597412109,-22.35205078125,-0.2494008424206617,-0.3787668642353256,-0.8277905088659171,-0.3302996527443464
3986681640,-0.5787929906457662,-0.2500958738088608,-0.8021545867860317,1.328649878501892,-0.2066076397895813,0.2245030850172042,-26.04224395751953,-48.52243041992188,-21.92071533203125,-0.2523551291439739,-0.3834156752282755,-0.8258005259287475,-0.3276627770573051
3996755615,-1.2443277145467695,-0.6302718334704637,-0.8796943380624055,1.4105969667434692,-0.3144097626209259,0.138222187757492,-25.9166259765625,-48.81533050537109,-21.537109375,-0.2561039634921402,-0.3884600484019592,-0.8230684717936194,-0.3256804369112722
4006829589,-1.781373713439703,-1.166827856889367,-0.5217278721213341,1.3737963438034058,-0.3025717437267303,0.1375928819179535,-25.759361267089844,-48.456573486328125,-20.43817138671875,-0.2599306343139953,-0.3935715858349763,-0.8201282588856135,-0.3239247038792776
4016903564,-2.338500085069984,-1.2026339142858982,0.1424889010488987,1.2576501369476318,-0.3164004683494568,0.1663961261510849,-26.26233673095703,-49.18042755126953,-20.0322265625,-0.2636540159906145,-0.3983083354886462,-0.81734811381573,-0.3221478022467806
4026978759,-2.9025021876886483,-1.0118073910474776,0.5825584806591272,1.1095943450927734,-0.3409867584705353,0.1282346248626709,-26.42951202392578,-49.50794982910156,-19.572998046875,-0.2672320235570607,-0.4024351204309795,-0.8147601605896734,-0.3206224734662872
4037052490,-3.32327290032804,-1.129853924757242,0.5610118347615003,1.014625072479248,-0.2304888218641281,0.1078956350684166,-26.33729553222656,-49.73787689208984,-19.06536865234375,-0.2703886943942643,-0.4061296723567922,-0.812392170025449,-0.3193235480000578
4047126464,-3.145515117499232,-1.13981710036695,0.454306194755435,1.010541915893555,0.023902179673314,0.0752743035554885,-26.26361083984375,-49.66358184814453,-18.38555908203125,-0.2726300023397282,-0.4099492692024697,-0.8103272884679089,-0.3177802980421612
4057200439,-2.345713231319189,-0.4863344871789217,0.329319048127532,1.0310301780700684,0.2121689468622207,-0.0180716067552566,-26.681640625,-50.22753143310547,-18.1146240234375,-0.2737923377074814,-0.4142814504865327,-0.8084344443861731,-0.3159784742121166
4067271484,-1.4877857577763498,0.2429343116164207,0.5362307369872927,0.988567352294922,0.2116767913103103,-0.1136154383420944,-26.62730407714844,-50.33821868896485,-17.5008544921875,-0.2743564431871762,-0.418866711824821,-0.8065027030192244,-0.3143763210739318
4077345703,-0.4699279806487262,0.5417910014629364,0.8767498090431094,0.8423183560371399,0.0454541519284248,-0.1675542443990707,-26.71919250488281,-50.711402893066406,-17.13580322265625,-0.2749423572698071,-0.4230279622974129,-0.8045110596348688,-0.3133941727279704
4087419677,0.5821043071508407,0.5646177502989769,0.9976035091280936,0.6412864327430725,-0.2481484413146972,-0.1352759301662445,-26.42839813232422,-50.67913818359375,-16.76641845703125,-0.2761689048552002,-0.4260986163626944,-0.8025365931406853,-0.313218591616679
4097493652,1.262854428101331,0.5811901149153709,0.7155211362108588,0.4749221503734588,-0.4948125779628753,0.0217653252184391,-26.48741149902344,-50.992332458496094,-15.91357421875,-0.2784287097781073,-0.4278304434272222,-0.8007150932042093,-0.3135184512891186
4107567626,1.6056734476625918,0.7903554279208183,0.3395502270236611,0.4157693386077881,-0.770210862159729,0.2218627333641052,-26.31513977050781,-50.97872161865234,-15.9393310546875,-0.2819112670120425,-0.4284253527551083,-0.7990813442472097,-0.3137622075192897
4117641601,0.9405785764835776,0.9797188928693532,-0.3635147477179765,0.5147716999053955,-1.0077118873596191,0.3381422460079193,-26.69147491455078,-51.02687072753906,-15.699951171875,-0.2868703117677257,-0.4284231175434198,-0.7972667939958173,-0.3138862756365075
4127715820,-0.023729396764189,0.6665057608902454,-0.9656862758636474,0.6956648230552673,-0.989059567451477,0.3093686401844024,-26.70475006103516,-50.9477767944336,-15.26300048828125,-0.2926277806092616,-0.4287602510144326,-0.7949970306920789,-0.3138685925868155
4137789550,-0.5731731049373746,0.2613403214007616,-1.0642232224613428,0.7629048824310303,-0.6862333416938782,0.1823884546756744,-27.207542419433597,-51.185646057128906,-14.63446044921875,-0.2977483401681406,-0.4299975444012555,-0.7925221963508078,-0.3136187105915866
4147863769,-0.8504242583058774,0.0081160864382982,-0.9058896865487098,0.6515640020370483,-0.2272841334342956,0.0806229338049888,-27.36150360107422,-51.22920227050781,-14.3370361328125,-0.3009855060645656,-0.4319434440089866,-0.7904740173776124,-0.3130233207012158
4157937744,-0.702536566953361,0.0861906752437353,-0.6028472354501485,0.4581486284732818,0.1460775285959243,0.042558379471302,-27.71544647216797,-51.62074279785156,-13.87548828125,-0.3020934278591683,-0.4340248630677178,-0.7893127225998368,-0.312005677810584
4168011718,-0.2060498113334178,0.1124631806194782,-0.534445314875245,0.3234648406505584,0.2372583001852035,0.0366040840744972,-27.69457244873047,-51.24224853515625,-13.28851318359375,-0.3019455240881475,-0.4358281090289279,-0.7888476971443915,-0.3108087141491973
4178085693,0.2415644845679402,-0.1376098968356847,-0.5764104794234037,0.2788676917552948,0.0528167374432086,0.0324545539915561,-27.52796936035156,-51.594032287597656,-13.204833984375,-0.3018677747691334,-0.4371878993324385,-0.7884993559582721,-0.3098569410168477
4188159667,0.0620640958555042,-0.2235200015723705,-0.8843582382202148,0.331005722284317,-0.2279086709022522,-0.0307483822107315,-27.850685119628903,-51.59932708740234,-13.43963623046875,-0.3026994191124125,-0.4382254991901746,-0.7877125530691027,-0.3095811618373498
4198233642,-0.3825705997131765,-0.3505740176022052,-1.1122592313557862,0.4695937931537628,-0.5043519735336304,-0.1373694390058517,-27.790451049804688,-51.63484954833984,-13.875244140625,-0.3045923964715853,-0.4393499221566798,-0.7861454746359777,-0.3101136657678994
4208307617,-0.6658002429693937,-0.3958873235344886,-1.2193509480699896,0.5906879901885986,-0.7244548201560974,-0.2489271312952041,-27.871139526367188,-51.41584014892578,-13.021484375,-0.3074602874016731,-0.4407854609677368,-0.7837045365927806,-0.3114216392330595
4218381591,-0.8625026725038886,-0.3280605724990367,-1.1232131715685127,0.624651312828064,-0.8512246012687683,-0.3439823091030121,-27.69306182861328,-51.58721160888672,-12.7359619140625,-0.3108788473687997,-0.442430744264539,-0.7806305009517659,-0.3134093089166979
4228455810,-0.8431896308772265,-0.1644534800976514,-0.9488526299625636,0.580866277217865,-0.9188811182975768,-0.3777098953723907,-27.91949462890625,-51.63788604736328,-12.51849365234375,-0.314511276134238,-0.4439716637118158,-0.7773078370100601,-0.3158551076938489
4238529785,-0.663934741358459,-0.0422784682810306,-1.0273416447877883,0.5127846598625183,-0.9963615536689758,-0.3975830972194671,-27.962326049804688,-51.75008392333984,-11.8935546875,-0.3182591150491267,-0.4451959422415973,-0.7739373211554611,-0.3186421388178529
4248603759,-0.5921045999005436,-0.1588420699566602,-1.280449559894204,0.4469164311885834,-1.053977608680725,-0.464204728603363,-27.901641845703125,-51.41245269775391,-11.13201904296875,-0.3220677979024643,-0.4460931736574372,-0.7705122348831902,-0.3218449779066707
4258677734,-1.0951616738215089,-0.3072194445222616,-1.6007207936912775,0.4416023790836334,-1.0410075187683103,-0.587627112865448,-27.84630584716797,-52.06759643554688,-10.862060546875,-0.3256804407915353,-0.446926905544687,-0.7669556142491718,-0.3255269714617616
4268751708,-1.8924543536596,-0.4590659565031528,-1.919579822602868,0.5400400161743164,-0.9330334067344666,-0.750360369682312,-27.843063354492188,-52.33223724365234,-10.665771484375,-0.3288033057927484,-0.4482648338511509,-0.7631195800973793,-0.3295382888221951
4278825683,-2.0288040213011205,-0.5445604661762714,-2.0072461233571173,0.6697498559951782,-0.817062497138977,-0.8931280970573425,-27.445945739746094,-52.65193176269531,-10.00579833984375,-0.331287559021426,-0.450505214777361,-0.7589214691419612,-0.3336640685780465
4288899414,-1.5656712537504731,-0.4446691823601722,-1.865395812472701,0.7233715653419495,-0.8491637110710144,-0.9959138035774232,-27.292335510253903,-52.49504089355469,-9.0631103515625,-0.3334476942508299,-0.4533820443615402,-0.7543485454764876,-0.3379579583093944
4298973876,-1.5641797000184654,-0.3589157294899225,-1.920926561036706,0.7408492565155029,-0.9225422739982604,-1.1137641668319702,-27.00335693359375,-52.94243621826172,-9.0086669921875,-0.3356773848545805,-0.4563888373393739,-0.7493651716162545,-0.3427563449854701
4309047607,-1.8658815501630304,-0.4706833290606736,-1.7320242838591335,0.7906734943389893,-0.842322051525116,-1.25052809715271,-26.84856414794922,-53.16986083984375,-8.49853515625,-0.3376290100712824,-0.4597230981371709,-0.7440354487656247,-0.347954992190206
4319121826,-1.6486553880378605,-0.4439139800786972,-1.009557858555019,0.799140453338623,-0.7957265377044678,-1.360126256942749,-26.198524475097656,-53.74435424804688,-8.0687255859375,-0.3390223345249341,-0.4635105742573128,-0.738481535066293,-0.3533649073732393
4329195556,-1.4818579751625656,-0.2244119819760322,-0.6588987930178641,0.7013022899627686,-0.83149254322052,-1.41170334815979,-25.50479888916016,-53.52002716064453,-7.20904541015625,-0.3401308929311822,-0.4672314770914295,-0.7328300824591456,-0.3591181655091212
4339269775,-1.658994557353109,-0.0948772550463676,-0.503199112740159,0.5808331966400146,-0.8269124627113342,-1.435904860496521,-25.05194854736328,-53.834014892578125,-6.60589599609375,-0.3409993236331295,-0.4705018071798684,-0.7272936187010163,-0.3652280703668871
4349343505,-1.9375063783071933,-0.1613783104360103,-0.3844856395542621,0.5085020065307617,-0.7402737140655518,-1.4727842807769775,-24.25872802734375,-54.06877136230469,-6.2008056640625,-0.3414326307563457,-0.4735074585910259,-0.7219556283756763,-0.3714761430399385
4359417480,-2.20539787491709,-0.2696305953621864,-0.4775242809966206,0.4918678998947143,-0.5620805025100708,-1.5525871515274048,-23.882614135742188,-54.58802032470703,-6.13751220703125,-0.3411385052074446,-0.4766716937899705,-0.716786503175158,-0.3776581188629628
4369491943,-2.4136139243736863,-0.1833686084479093,-0.4197632891625166,0.471831351518631,-0.368619441986084,-1.6989904642105105,-22.92578887939453,-54.40504455566406,-5.72271728515625,-0.3398283086076893,-0.4802986106966948,-0.7117201509753885,-0.3837764952319058
4379565673,-2.612135970550775,-0.0201911396354436,-0.3240560130327939,0.4479654431343078,-0.1967992633581161,-1.8705819845199585,-21.367210388183597,-55.393646240234375,-4.99468994140625,-0.3373924469775967,-0.4844316774603711,-0.7066495935291693,-0.3900496314619874
4389639892,-2.557255794849992,-0.0234346516013145,-0.1576779946133494,0.4574348628520965,-0.1791475564241409,-2.032376527786255,-20.232276916503903,-55.82608795166016,-5.08831787109375,-0.334129686309757,-0.488980017068457,-0.7013772317485422,-0.3966434020555403
4399713623,-2.3728885307535528,-0.0937567265838384,-0.2321384845748543,0.5663754940032959,-0.1685443818569183,-2.200397491455078,-19.343246459960938,-55.54454040527344,-4.12066650390625,-0.3305187561523445,-0.4939567376933312,-0.6955704072610034,-0.4036657789971969
4409787597,-2.5997651492774483,-0.2060726076871156,-0.2467132456332445,0.7193312644958496,-0.1775799542665481,-2.3635594844818115,-18.11939239501953,-55.99690246582031,-3.38482666015625,-0.3267323380625627,-0.4996281194608588,-0.6889794025252801,-0.4110051528062394
4419862548,-2.589087687918544,-0.1990992615431547,-0.1424652279123663,0.8247125148773193,-0.1849976181983947,-2.454096555709839,-17.171653747558594,-56.1421127319336,-3.49798583984375,-0.3228784609197338,-0.5058838406228894,-0.6816624983539691,-0.4185301014759751
4429936523,-2.260942067484557,-0.0071282444447278,0.2006727944701909,0.815029501914978,-0.0962781384587287,-2.4180233478546143,-15.804183959960938,-56.518333435058594,-2.677490234375,-0.3188665619968006,-0.5123526279683763,-0.6741041025638855,-0.4259138420255892
4440010742,-1.8668755296364423,0.280791456323862,0.6431313150435686,0.6872924566268921,0.0215929895639419,-2.2488300800323486,-14.54865264892578,-56.301246643066406,-2.26422119140625,-0.3139695208541678,-0.5189097518546305,-0.6675001553169256,-0.4319716312400486
4450084472,-1.3389357972629368,0.5622913531780243,0.7569409418359399,0.5052188038825989,-0.0706333443522453,-2.041686773300171,-13.4163818359375,-56.83016204833984,-2.33624267578125,-0.3096848369476566,-0.5242537148667508,-0.6612145329391191,-0.4382337033826273
4460158935,-1.306265699804574,0.8873837235212325,0.1159498536914587,0.3547128438949585,-0.2620915174484253,-1.9239736795425413,-12.47490692138672,-56.82294464111328,-2.03265380859375,-0.305316308460393,-0.5287153243602213,-0.6559756828709788,-0.4437768986234872
4470232666,-1.6935912389598786,0.910598594892025,-0.5890843752965331,0.3031788170337677,-0.2701084315776825,-1.9053022861480715,-11.410415649414062,-56.8555908203125,-1.91009521484375,-0.3011954973713526,-0.5324482339055794,-0.6509454569955001,-0.4494998441632157
4480306884,-1.878118808184564,0.6548585777163505,-0.5939794538617134,0.3246577084064483,-0.1373759061098098,-1.9442015886306765,-10.531402587890623,-56.62091064453125,-1.53924560546875,-0.2967334095566202,-0.5362633466773398,-0.6459825352419953,-0.4550576898084814
4490380615,-1.6271594494141637,0.5248275917023421,-0.4510819720119237,0.3817042410373688,-0.0954295247793197,-1.9937992095947263,-9.44574737548828,-56.83648681640625,-1.25860595703125,-0.2918891899953639,-0.5404424590596847,-0.640882169398763,-0.4604267210449543
4500454589,-1.3658387094967066,0.5146791226536035,-0.5027189280077815,0.4126375317573547,-0.1834669560194015,-2.010298252105713,-8.561859130859375,-57.03582763671875,-0.9033203125,-0.287114856796996,-0.5446849611784329,-0.6354904172161876,-0.4658705943526849
4510528564,-1.329620418037474,0.5606295574456454,-0.4565677099466323,0.4083767533302307,-0.2807503938674927,-2.0025997161865234,-7.36590576171875,-57.05537414550781,-1.01910400390625,-0.2825956571839147,-0.5487044275382122,-0.629885604845394,-0.4714947687150023
4520602539,-1.3183147417776286,0.7208674656748771,-0.2364629236452281,0.3894797265529632,-0.4252440929412842,-2.026875734329224,-6.343315124511719,-56.45980072021485,-0.97552490234375,-0.2783324148240219,-0.5523597011014102,-0.624110701406818,-0.4774050757120208
4530676757,-1.4808962905235588,0.906501096445322,-0.0935085970416665,0.3467506468296051,-0.5791681408882141,-2.0756874084472656,-5.444297790527344,-56.88166809082031,-0.66131591796875,-0.2743292234653857,-0.5555250462518194,-0.6180589533125483,-0.483878513183858
4540750732,-1.6148713379882276,0.9130220226466657,-0.0414727048560977,0.288752794265747,-0.7034965753555298,-2.0594921112060547,-4.309165954589844,-57.091453552246094,-0.510498046875,-0.2705365810217542,-0.5581427859940863,-0.611862206149504,-0.4908269629585517
4550824951,-1.3817001493647694,0.7855962506949901,-0.1517791458331048,0.2199849188327789,-0.7575289011001587,-2.011983871459961,-3.55902099609375,-56.8809814453125,-0.078369140625,-0.2669335401412761,-0.5602097217974529,-0.6057567745168118,-0.4979661748487722
4560898681,-1.1523922120407224,0.9192191237211228,-0.3258940421149134,0.1589189320802688,-0.7339933514595032,-1.980427861213684,-2.5468063354492188,-56.32085418701172,0.114990234375,-0.2632726469583688,-0.5619094054473768,-0.5998764587681783,-0.5050680683296072
4570972656,-1.0428756062671545,1.0617840126156806,-0.3874053263932466,0.1317387074232101,-0.6380369663238525,-1.9578803777694704,-1.3083419799804688,-56.28446960449219,-0.41375732421875,-0.2593187674524698,-0.5635424622206087,-0.5942640624553653,-0.5118827756756108
4581046630,-0.8469397771909832,1.1326970392286777,-0.3236988701581955,0.1134118661284446,-0.515490710735321,-1.948341727256775,-0.3481292724609375,-56.19099426269531,-0.4481201171875,-0.2549616420718465,-0.5653332273174478,-0.5888785580183796,-0.5182808457309741
4591120605,-0.5772133202388883,1.26876379827559,-0.269707752251625,0.1060969606041908,-0.4776096045970917,-1.93079686164856,0.6765899658203125,-56.027618408203125,-0.396484375,-0.2503147774557738,-0.5672055618433737,-0.5836264690872552,-0.5244049052853881
4601194824,-0.2215203521877527,1.2217846049576997,-0.4768095568560063,0.1497144401073455,-0.4792390763759613,-1.887382984161377,1.4981689453125,-55.64201354980469,-0.019775390625,-0.2457495420075621,-0.5690510585129505,-0.578371772612386,-0.5303528218529525
4611268798,0.0446305843651294,1.1293950750738382,-0.4689793016217649,0.2293778508901596,-0.5300039649009705,-1.885626554489136,2.676788330078125,-55.51854705810547,-0.063720703125,-0.2422928318227003,-0.5705760586871795,-0.5721524437098642,-0.5370089766138687
4621342529,-0.0769876703515648,1.2355717227697371,-0.3375941245198249,0.2983320951461792,-0.6774983406066895,-1.9223418235778809,3.807540893554688,-55.33909606933594,-0.5283203125,-0.239260677388241,-0.5720007603110381,-0.565480544482332,-0.5438761101519067
4631416748,-0.2401341595038771,1.3920026399314402,-0.2412345219612121,0.3572971522808075,-0.7854535579681396,-1.9657602310180664,4.677787780761719,-55.2945556640625,0.191650390625,-0.2366436841912693,-0.5732284667065932,-0.5582870416541241,-0.5511120274827672
